No,Temperature,Pressure,accelX,accelY,accelZ,magX,magY,magZ,gyroX,gryoY,gyroZ,gps_latitude,gps_longtitude,gps_time
1,25.899,100692.0,0.052,0.052,-0.992,-50.0,-55.0,-10.0,-5.737,0.122,0.366,0.0,0.0,0
2,25.899,100699.0,0.06,0.073,-0.954,-50.0,-55.0,-10.0,-0.915,-1.77,1.159,0.0,0.0,0
3,25.899,100697.0,0.083,0.049,-0.981,-50.0,-55.0,-10.0,-12.817,-1.403,4.333,0.0,0.0,0
4,25.899,100698.0,0.072,0.034,-0.999,-50.0,-55.0,-10.0,-6.713,-2.441,3.54,0.0,0.0,0
5,25.899,100697.0,0.066,0.039,-0.989,-50.0,-55.0,-10.0,-2.258,1.22,0.366,0.0,0.0,0
6,26.0,100692.0,0.063,0.061,-0.956,-50.0,-55.0,-10.0,-5.615,0.244,0.366,0.0,0.0,0
7,26.0,100703.0,0.059,0.035,-1.01,-50.0,-55.0,-10.0,-8.3,0.793,0.976,0.0,0.0,0
8,26.0,100702.0,0.062,0.043,-0.997,-50.0,-55.0,-10.0,-0.671,-2.075,0.61,0.0,0.0,0
9,26.0,100707.0,0.067,0.058,-0.975,-50.0,-55.0,-10.0,-8.117,-1.708,-0.122,0.0,0.0,0
10,26.0,100701.0,0.053,0.043,-0.983,-50.0,-55.0,-10.0,0.427,-3.723,0.793,0.0,0.0,0
11,26.0,100698.0,0.07,0.035,-0.971,-50.0,-55.0,-10.0,-8.972,0.793,1.342,0.0,0.0,0
12,26.0,100702.0,0.067,0.059,-0.958,-50.0,-55.0,-10.0,-8.422,-0.427,3.54,0.0,0.0,0
13,26.0,100700.0,0.053,0.044,-1.006,-50.0,-55.0,-10.0,-6.408,-1.77,3.356,0.0,0.0,0
14,26.0,100697.0,0.059,0.054,-0.976,-50.0,-55.0,-10.0,-7.568,-3.173,1.831,0.0,0.0,0
15,26.0,100700.0,0.025,0.061,-1.005,-50.0,-55.0,-10.0,-3.417,2.99,-6.225,0.0,0.0,0
16,26.0,100698.0,0.058,0.035,-0.98,-50.0,-55.0,-10.0,-0.305,-1.159,-18.066,0.0,0.0,0
17,26.0,100695.0,0.077,0.032,-1.003,-50.0,-55.0,-10.0,-6.896,-5.554,-16.479,0.0,0.0,0
18,26.0,100696.0,0.067,0.042,-0.969,-50.0,-55.0,-10.0,5.31,-0.61,-19.836,0.0,0.0,0
19,26.0,100696.0,0.102,0.029,-0.935,-50.0,-55.0,-10.0,-5.249,0.183,-25.329,0.0,0.0,0
20,26.0,100695.0,0.072,0.029,-0.986,-50.0,-55.0,-10.0,-4.943,5.31,-12.451,0.0,0.0,0
21,26.0,100697.0,0.103,0.018,-1.052,-50.0,-55.0,-10.0,-5.187,10.009,-15.625,0.0,0.0,0
22,26.0,100694.0,0.02,0.058,-0.969,-50.0,-55.0,-10.0,1.525,-11.657,-25.512,0.0,0.0,0
23,26.0,100699.0,0.052,0.039,-0.992,-50.0,-55.0,-10.0,-12.939,12.451,-21.606,0.0,0.0,0
24,26.1,100701.0,0.054,0.039,-0.993,-50.0,-55.0,-10.0,-1.831,3.173,-21.362,0.0,0.0,0
25,26.1,100698.0,0.053,0.051,-0.956,-50.0,-55.0,-10.0,-0.183,2.38,-17.639,0.0,0.0,0
26,26.1,100700.0,0.022,0.05,-0.979,-50.0,-55.0,-10.0,-6.469,-0.915,-11.657,0.0,0.0,0
27,26.0,100702.0,0.032,0.042,-0.979,-50.0,-55.0,-10.0,-8.605,-3.356,-8.056,0.0,0.0,0
28,26.1,100704.0,0.034,0.025,-0.996,-50.0,-55.0,-10.0,-2.38,-4.638,-8.3,0.0,0.0,0
29,26.0,100703.0,0.071,0.021,-0.974,-50.0,-55.0,-10.0,-7.751,-3.112,-2.929,0.0,0.0,0
30,26.1,100704.0,0.037,0.042,-0.991,-50.0,-55.0,-10.0,-5.981,6.286,6.835,0.0,0.0,0
31,26.1,100707.0,0.062,0.016,-0.986,-50.0,-55.0,-10.0,-2.441,1.525,-1.708,0.0,0.0,0
32,26.1,100706.0,0.09,0.043,-0.973,-50.0,-55.0,-10.0,-6.469,-8.422,7.141,0.0,0.0,0
33,26.1,100707.0,0.057,0.047,-0.959,-50.0,-55.0,-10.0,-1.464,-2.685,11.718,0.0,0.0,0
34,26.1,100700.0,0.048,0.029,-1.019,-50.0,-55.0,-10.0,4.272,4.577,2.136,0.0,0.0,0
35,26.1,100706.0,0.041,0.038,-1.023,-50.0,-55.0,-10.0,-12.573,-0.549,0.854,0.0,0.0,0
36,26.1,100698.0,0.047,0.062,-0.97,-50.0,-55.0,-10.0,-3.479,2.258,-1.281,0.0,0.0,0
37,26.1,100699.0,0.071,0.06,-0.984,-50.0,-55.0,-10.0,-4.699,-7.019,-9.948,0.0,0.0,0
38,26.1,100700.0,0.063,0.066,-1.02,-50.0,-55.0,-10.0,-8.789,3.112,-9.094,0.0,0.0,0
39,26.1,100702.0,0.055,0.062,-0.969,-50.0,-55.0,-10.0,-6.103,-0.366,-3.906,0.0,0.0,0
40,26.1,100703.0,0.049,0.044,-0.971,-50.0,-55.0,-10.0,-1.098,-0.305,-7.69,0.0,0.0,0
41,26.1,100702.0,0.061,0.045,-0.985,-50.0,-55.0,-10.0,-1.586,3.723,-7.69,0.0,0.0,0
42,26.1,100701.0,0.025,0.084,-0.949,-50.0,-55.0,-10.0,2.38,-6.652,-0.183,0.0,0.0,0
43,26.1,100704.0,0.069,-0.018,-0.991,-50.0,-55.0,-10.0,-2.563,6.835,-6.652,0.0,0.0,0
44,26.1,100707.0,0.067,0.052,-0.924,-50.0,-55.0,-10.0,6.958,-12.512,-8.605,0.0,0.0,0
45,26.1,100694.0,0.051,-0.011,-1.055,-50.0,-55.0,-10.0,-23.071,7.019,-13.061,0.0,0.0,0
46,26.1,100702.0,0.062,0.036,-0.959,-50.0,-55.0,-10.0,9.704,-6.713,-6.103,0.0,0.0,0
47,26.1,100707.0,0.12,0.046,-0.927,-50.0,-55.0,-10.0,-6.164,7.568,-10.986,0.0,0.0,0
48,26.1,100702.0,0.078,0.026,-0.992,-50.0,-55.0,-10.0,-26.428,10.864,-6.896,0.0,0.0,0
49,26.1,100695.0,0.049,0.045,-0.995,-50.0,-55.0,-10.0,0.671,-0.305,-4.577,0.0,0.0,0
50,26.1,100711.0,0.055,0.033,-0.981,-50.0,-55.0,-10.0,-3.723,-5.981,-5.554,0.0,0.0,0
51,26.1,100697.0,0.036,0.006,-1.044,-50.0,-55.0,-10.0,-14.587,-4.089,16.357,0.0,0.0,0
52,26.1,100703.0,0.023,0.042,-0.977,-50.0,-55.0,-10.0,7.873,7.263,20.996,0.0,0.0,0
53,26.1,100704.0,0.107,-0.027,-0.975,-50.0,-55.0,-10.0,-1.586,0.0,12.878,0.0,0.0,0
54,26.1,100713.0,0.023,0.026,-1.006,-50.0,-55.0,-10.0,-2.197,-1.342,14.221,0.0,0.0,0
55,26.1,100706.0,0.057,0.015,-0.983,-50.0,-55.0,-10.0,-12.512,-12.756,22.521,0.0,0.0,0
56,26.1,100705.0,0.033,0.011,-1.048,-50.0,-55.0,-10.0,-8.422,-2.807,14.465,0.0,0.0,0
57,26.1,100703.0,0.105,0.004,-0.93,-50.0,-55.0,-10.0,-4.638,-3.417,13.183,0.0,0.0,0
58,26.1,100705.0,0.077,0.018,-0.997,-50.0,-55.0,-10.0,-7.995,-3.295,8.666,0.0,0.0,0
59,26.1,100705.0,0.08,0.008,-1.004,-50.0,-55.0,-10.0,-11.352,-9.948,1.831,0.0,0.0,0
60,26.1,100711.0,0.078,0.031,-0.957,-50.0,-55.0,-10.0,2.868,-1.464,7.202,0.0,0.0,0
61,26.1,100715.0,0.076,0.054,-0.958,-50.0,-55.0,-10.0,-4.882,-7.019,3.234,0.0,0.0,0
62,26.1,100700.0,0.076,0.046,-0.991,-50.0,-55.0,-10.0,-9.033,1.037,-2.868,0.0,0.0,0
63,26.1,100702.0,0.103,0.004,-1.023,-50.0,-55.0,-10.0,4.699,14.099,-4.76,0.0,0.0,0
64,26.1,100695.0,0.132,0.042,-0.934,-50.0,-55.0,-10.0,-6.774,-1.831,6.53,0.0,0.0,0
65,26.1,100699.0,0.111,0.032,-0.936,-50.0,-55.0,-10.0,-8.544,-3.784,12.817,0.0,0.0,0
66,26.1,100700.0,0.071,0.041,-1.003,-50.0,-55.0,-10.0,-0.854,-10.253,5.31,0.0,0.0,0
67,26.1,100699.0,0.061,0.068,-1.003,-50.0,-55.0,-10.0,-4.577,21.24,8.666,0.0,0.0,0
68,26.1,100704.0,0.075,0.05,-0.938,-50.0,-55.0,-10.0,2.441,11.535,11.169,0.0,0.0,0
69,26.1,100699.0,0.063,0.011,-1.009,-50.0,-55.0,-10.0,-4.211,-2.441,0.305,0.0,0.0,0
70,26.1,100705.0,-0.004,0.091,-1.044,-50.0,-55.0,-10.0,-0.488,-0.854,5.004,0.0,0.0,0
71,26.1,100699.0,0.109,0.01,-0.964,-50.0,-55.0,-10.0,0.61,-15.136,10.803,0.0,0.0,0
72,26.1,100700.0,0.025,0.069,-1.042,-50.0,-55.0,-10.0,-16.723,-1.525,7.385,0.0,0.0,0
73,26.1,100702.0,0.045,0.031,-0.986,-50.0,-55.0,-10.0,-17.822,-11.413,9.887,0.0,0.0,0
74,26.1,100711.0,0.044,0.007,-0.992,-50.0,-55.0,-10.0,-0.854,-1.586,4.028,0.0,0.0,0
75,26.1,100700.0,0.038,0.045,-0.955,-50.0,-55.0,-10.0,-2.136,-8.789,0.183,0.0,0.0,0
76,26.1,100699.0,0.03,0.03,-0.987,-50.0,-55.0,-10.0,-13.0,-8.789,4.821,0.0,0.0,0
77,26.1,100700.0,0.045,0.026,-0.992,-50.0,-55.0,-10.0,2.197,8.789,4.211,0.0,0.0,0
78,26.1,100703.0,0.06,0.022,-0.984,-50.0,-55.0,-10.0,-7.934,-6.286,8.911,0.0,0.0,0
79,26.1,100708.0,0.018,0.031,-1.035,-50.0,-55.0,-10.0,-15.258,11.474,12.023,0.0,0.0,0
80,26.1,100710.0,0.042,0.034,-0.915,-50.0,-55.0,-10.0,2.99,1.647,14.16,0.0,0.0,0
81,26.1,100696.0,0.062,-0.016,-0.988,-50.0,-55.0,-10.0,-16.174,4.455,9.643,0.0,0.0,0
82,26.1,100707.0,0.13,-0.007,-0.919,-50.0,-55.0,-10.0,1.464,3.967,17.456,0.0,0.0,0
83,26.1,100708.0,0.062,0.031,-1.004,-50.0,-55.0,-10.0,2.258,0.305,22.338,0.0,0.0,0
84,26.1,100713.0,0.042,0.027,-1.029,-50.0,-55.0,-10.0,-15.319,-0.61,31.86,0.0,0.0,0
85,26.1,100709.0,0.019,0.044,-0.997,-50.0,-55.0,-10.0,1.647,-8.361,23.62,0.0,0.0,0
86,26.1,100709.0,0.027,0.043,-1.018,-50.0,-55.0,-10.0,-0.854,-12.695,20.324,0.0,0.0,0
87,26.1,100705.0,0.028,-0.007,-1.012,-50.0,-55.0,-10.0,-10.803,2.746,20.507,0.0,0.0,0
88,26.1,100706.0,0.072,0.041,-0.949,-50.0,-55.0,-10.0,-5.615,3.295,7.324,0.0,0.0,0
89,26.1,100703.0,0.065,0.055,-0.914,-50.0,-55.0,-10.0,-12.39,-12.329,5.004,0.0,0.0,0
90,26.1,100700.0,0.068,0.012,-1.045,-50.0,-55.0,-10.0,-18.188,-6.53,1.647,0.0,0.0,0
91,26.1,100705.0,0.039,0.025,-0.987,-50.0,-55.0,-10.0,-6.103,-9.338,4.516,0.0,0.0,0
92,26.1,100706.0,0.066,0.024,-0.971,-50.0,-55.0,-10.0,14.404,2.868,4.028,0.0,0.0,0
93,26.1,100700.0,0.059,0.062,-0.937,-50.0,-55.0,-10.0,2.014,5.371,-0.854,0.0,0.0,0
94,26.1,100701.0,0.025,0.039,-1.034,-50.0,-55.0,-10.0,-0.793,9.521,-1.159,0.0,0.0,0
95,26.1,100703.0,0.065,0.053,-0.956,-50.0,-55.0,-10.0,2.258,-2.258,0.793,0.0,0.0,0
96,26.1,100700.0,0.012,0.065,-0.996,-50.0,-55.0,-10.0,-2.99,-3.479,2.868,0.0,0.0,0
97,26.1,100703.0,0.066,0.028,-0.96,-50.0,-55.0,-10.0,-4.028,3.112,-2.441,0.0,0.0,0
98,26.1,100705.0,0.053,0.035,-1.057,-50.0,-55.0,-10.0,3.723,8.972,8.789,0.0,0.0,0
99,26.1,100714.0,0.039,0.101,-0.981,-50.0,-55.0,-10.0,12.145,7.446,-0.793,0.0,0.0,0
100,26.1,100715.0,0.023,0.083,-0.995,-50.0,-55.0,-10.0,-12.329,0.854,3.479,0.0,0.0,0
101,26.1,100699.0,0.011,0.068,-0.971,-50.0,-55.0,-10.0,-4.394,-10.742,1.892,0.0,0.0,0
102,26.1,100708.0,0.049,0.059,-0.921,-50.0,-55.0,-10.0,-13.122,-4.394,-9.338,0.0,0.0,0
103,26.1,100707.0,0.009,0.064,-0.995,-50.0,-55.0,-10.0,-18.371,-2.685,-5.126,0.0,0.0,0
104,26.1,100693.0,0.011,0.036,-1.022,-50.0,-55.0,-10.0,0.671,-3.54,0.854,0.0,0.0,0
105,26.1,100697.0,0.002,0.051,-0.949,-50.0,-55.0,-10.0,-8.605,-1.464,-0.427,0.0,0.0,0
106,26.1,100706.0,0.014,0.05,-0.969,-50.0,-55.0,-10.0,-13.732,-10.742,5.676,0.0,0.0,0
107,26.1,100704.0,0.015,0.024,-1.001,-50.0,-55.0,-10.0,-6.042,1.586,5.92,0.0,0.0,0
108,26.1,100708.0,0.041,0.023,-0.993,-50.0,-55.0,-10.0,3.112,-0.915,10.009,0.0,0.0,0
109,26.1,100707.0,0.039,0.0,-1.06,-50.0,-55.0,-10.0,-4.821,5.493,9.277,0.0,0.0,0
110,26.1,100706.0,0.034,0.055,-0.951,-50.0,-55.0,-10.0,-5.676,0.976,10.742,0.0,0.0,0
111,26.1,100701.0,0.076,0.04,-0.97,-50.0,-55.0,-10.0,-9.826,-6.774,11.718,0.0,0.0,0
112,26.1,100699.0,0.082,0.069,-0.925,-50.0,-55.0,-10.0,-3.967,-8.178,6.652,0.0,0.0,0
113,26.1,100703.0,0.031,0.061,-1.025,-50.0,-55.0,-10.0,-7.507,-0.305,-4.211,0.0,0.0,0
114,26.1,100699.0,0.027,0.045,-0.999,-50.0,-55.0,-10.0,-7.446,3.845,-7.751,0.0,0.0,0
115,26.1,100706.0,0.049,0.059,-0.96,-50.0,-55.0,-10.0,2.807,-14.099,-5.92,0.0,0.0,0
116,26.1,100708.0,0.047,0.046,-0.978,-50.0,-55.0,-10.0,-14.953,-5.615,-6.408,0.0,0.0,0
117,26.1,100710.0,0.045,0.038,-0.956,-50.0,-55.0,-10.0,-3.662,2.624,-4.516,0.0,0.0,0
118,26.1,100701.0,0.052,0.053,-1.02,-50.0,-55.0,-10.0,0.122,2.929,-8.056,0.0,0.0,0
119,26.1,100710.0,0.062,0.033,-1.003,-50.0,-55.0,-10.0,-3.112,2.563,-1.831,0.0,0.0,0
120,26.1,100711.0,0.053,0.031,-0.998,-50.0,-55.0,-10.0,-7.202,-16.784,6.835,0.0,0.0,0
121,26.1,100704.0,0.057,0.018,-0.997,-50.0,-55.0,-10.0,2.075,1.464,-6.469,0.0,0.0,0
122,26.1,100711.0,0.018,0.081,-0.992,-50.0,-55.0,-10.0,14.465,24.963,-13.305,0.0,0.0,0
123,26.1,100707.0,0.038,0.064,-0.925,-50.0,-55.0,-10.0,-1.586,0.244,-20.751,0.0,0.0,0
124,26.1,100713.0,0.026,0.026,-0.999,-50.0,-55.0,-10.0,-29.479,-20.263,-21.301,0.0,0.0,0
125,26.1,100705.0,0.053,-0.001,-0.993,-50.0,-55.0,-10.0,2.258,5.493,-6.469,0.0,0.0,0
126,26.1,100709.0,0.029,0.027,-0.963,-50.0,-55.0,-10.0,-12.084,-10.498,1.464,0.0,0.0,0
127,26.1,100701.0,0.049,0.01,-1.004,-50.0,-55.0,-10.0,-2.685,-3.356,3.051,0.0,0.0,0
128,26.1,100701.0,0.065,0.039,-0.924,-50.0,-55.0,-10.0,0.061,-3.234,10.681,0.0,0.0,0
129,26.1,100704.0,-0.003,0.011,-1.071,-50.0,-55.0,-10.0,2.136,4.455,15.502,0.0,0.0,0
130,26.1,100703.0,0.14,-0.009,-0.948,-50.0,-55.0,-10.0,5.126,-5.371,19.348,0.0,0.0,0
131,26.1,100701.0,-0.005,0.033,-1.042,-50.0,-55.0,-10.0,-12.023,10.986,5.92,0.0,0.0,0
132,26.1,100707.0,0.064,0.034,-1.032,-50.0,-55.0,-10.0,7.507,-9.948,17.333,0.0,0.0,0
133,26.1,100701.0,0.05,0.071,-0.976,-50.0,-55.0,-10.0,-20.629,3.784,3.112,0.0,0.0,0
134,26.1,100703.0,0.067,0.043,-0.991,-50.0,-55.0,-10.0,-10.009,1.098,-5.676,0.0,0.0,0
135,26.1,100703.0,0.045,0.082,-0.93,-50.0,-55.0,-10.0,4.028,0.122,0.854,0.0,0.0,0
136,26.1,100701.0,0.057,0.059,-0.922,-50.0,-55.0,-10.0,-11.657,-6.286,0.061,0.0,0.0,0
137,26.1,100708.0,0.043,0.013,-1.047,-50.0,-55.0,-10.0,-22.521,-15.38,-4.089,0.0,0.0,0
138,26.1,100694.0,0.108,0.037,-0.988,-50.0,-55.0,-10.0,3.112,6.286,0.427,0.0,0.0,0
139,26.1,100697.0,0.108,0.095,-0.98,-50.0,-55.0,-10.0,8.422,6.896,3.54,0.0,0.0,0
140,26.1,100701.0,0.09,0.082,-0.98,-50.0,-55.0,-10.0,-11.596,24.414,5.065,0.0,0.0,0
141,26.1,100691.0,-0.023,0.067,-1.102,-50.0,-55.0,-10.0,18.371,-8.483,17.211,0.0,0.0,0
142,26.1,100694.0,0.081,0.071,-0.906,-50.0,-55.0,-10.0,0.976,-14.099,-19.226,0.0,0.0,0
143,26.1,100696.0,-0.017,0.095,-0.939,-50.0,-55.0,-10.0,-9.033,-10.681,-20.69,0.0,0.0,0
144,26.1,100694.0,0.044,0.022,-0.97,-50.0,-55.0,-10.0,2.807,4.15,-12.878,0.0,0.0,0
145,26.1,100696.0,0.056,0.027,-0.938,-50.0,-55.0,-10.0,-7.568,4.394,-23.01,0.0,0.0,0
146,26.1,100696.0,0.083,0.068,-0.901,-50.0,-55.0,-10.0,-13.122,-6.408,-12.695,0.0,0.0,0
147,26.1,100696.0,0.039,0.058,-1.023,-50.0,-55.0,-10.0,-17.822,0.976,-2.319,0.0,0.0,0
148,26.1,100695.0,0.084,0.065,-0.933,-50.0,-55.0,-10.0,1.098,1.892,2.502,0.0,0.0,0
149,26.1,100698.0,0.063,0.03,-1.007,-50.0,-55.0,-10.0,-17.395,-1.098,5.126,0.0,0.0,0
150,26.1,100696.0,0.037,0.01,-1.068,-50.0,-55.0,-10.0,15.93,-5.798,14.587,0.0,0.0,0
151,26.1,100702.0,0.078,-0.021,-1.042,-50.0,-55.0,-10.0,-8.666,17.883,19.897,0.0,0.0,0
152,26.1,100703.0,0.083,0.044,-0.978,-50.0,-55.0,-10.0,7.263,1.281,16.052,0.0,0.0,0
153,26.1,100699.0,0.061,0.053,-1.014,-50.0,-55.0,-10.0,-36.437,1.159,12.084,0.0,0.0,0
154,26.1,100699.0,0.078,0.0,-0.988,-50.0,-55.0,-10.0,-0.61,-4.76,2.563,0.0,0.0,0
155,26.1,100696.0,0.038,0.09,-0.917,-50.0,-55.0,-10.0,-3.112,-0.793,2.319,0.0,0.0,0
156,26.1,100702.0,0.006,0.083,-0.958,-50.0,-55.0,-10.0,-19.104,-3.601,-0.122,0.0,0.0,0
157,26.1,100693.0,0.063,0.059,-1.007,-50.0,-55.0,-10.0,-19.531,-5.615,-3.173,0.0,0.0,0
158,26.1,100696.0,0.07,0.052,-0.96,-50.0,-55.0,-10.0,-0.854,1.831,-0.854,0.0,0.0,0
159,26.1,100704.0,0.063,0.042,-1.025,-50.0,-55.0,-10.0,8.3,-6.53,3.723,0.0,0.0,0
160,26.1,100703.0,0.0,0.033,-0.947,-50.0,-55.0,-10.0,3.051,-4.394,-7.019,0.0,0.0,0
161,26.1,100700.0,0.024,0.023,-1.067,-50.0,-55.0,-10.0,4.333,14.709,-15.38,0.0,0.0,0
162,26.1,100705.0,-0.004,0.082,-0.922,-50.0,-55.0,-10.0,14.526,11.718,-23.864,0.0,0.0,0
163,26.1,100698.0,0.028,0.032,-0.997,-50.0,-55.0,-10.0,-36.865,-14.648,-14.831,0.0,0.0,0
164,26.1,100694.0,0.034,0.005,-0.997,-50.0,-55.0,-10.0,7.446,-5.554,-13.305,0.0,0.0,0
165,26.1,100695.0,0.021,0.045,-0.96,-50.0,-55.0,-10.0,-7.019,-5.31,-7.385,0.0,0.0,0
166,26.1,100701.0,0.032,0.052,-0.987,-50.0,-55.0,-10.0,-11.718,-0.671,-0.732,0.0,0.0,0
167,26.1,100701.0,0.025,0.005,-1.05,-50.0,-55.0,-10.0,11.108,3.417,12.634,0.0,0.0,0
168,26.1,100697.0,-0.016,0.083,-0.944,-50.0,-55.0,-10.0,13.854,-1.281,3.479,0.0,0.0,0
169,26.1,100704.0,0.022,0.007,-1.148,-50.0,-55.0,-10.0,-23.559,7.446,-2.807,0.0,0.0,0
170,26.1,100698.0,0.082,0.079,-0.9,-50.0,-55.0,-10.0,5.676,0.366,6.835,0.0,0.0,0
171,26.1,100706.0,0.053,0.018,-1.062,-50.0,-55.0,-10.0,-28.381,3.845,4.394,0.0,0.0,0
172,26.1,100705.0,0.061,0.02,-0.953,-50.0,-55.0,-10.0,-0.183,1.77,1.77,0.0,0.0,0
173,26.1,100694.0,0.019,0.036,-0.921,-50.0,-55.0,-10.0,-0.122,10.131,-0.488,0.0,0.0,0
174,26.1,100701.0,0.031,0.055,-0.915,-50.0,-55.0,-10.0,-3.173,-9.094,-4.211,0.0,0.0,0
175,26.1,100696.0,0.055,0.048,-0.951,-50.0,-55.0,-10.0,-9.338,-26.55,-5.493,0.0,0.0,0
176,26.1,100703.0,0.105,0.044,-1.041,-50.0,-55.0,-10.0,-10.62,-1.831,-1.586,0.0,0.0,0
177,26.1,100691.0,0.061,0.044,-0.964,-50.0,-55.0,-10.0,4.455,-0.488,8.117,0.0,0.0,0
178,26.1,100699.0,0.024,0.009,-1.03,-50.0,-55.0,-10.0,-2.075,7.446,-11.108,0.0,0.0,0
179,26.1,100700.0,-0.001,0.053,-1.014,-50.0,-55.0,-10.0,13.427,-13.671,-3.479,0.0,0.0,0
180,26.1,100692.0,0.015,0.044,-0.917,-50.0,-55.0,-10.0,-14.648,5.981,-19.897,0.0,0.0,0
181,26.1,100696.0,0.033,0.0,-1.001,-50.0,-55.0,-10.0,-6.958,-14.465,-13.671,0.0,0.0,0
182,26.1,100698.0,0.063,0.033,-0.913,-50.0,-55.0,-10.0,3.662,-3.784,-5.432,0.0,0.0,0
183,26.1,100696.0,0.042,0.022,-0.967,-50.0,-55.0,-10.0,-3.906,4.333,-0.793,0.0,0.0,0
184,26.1,100699.0,0.081,0.04,-0.945,-50.0,-55.0,-10.0,-2.563,-5.615,7.507,0.0,0.0,0
185,26.1,100707.0,0.077,-0.003,-1.074,-50.0,-55.0,-10.0,3.723,13.671,4.333,0.0,0.0,0
186,26.1,100704.0,0.039,0.013,-1.014,-50.0,-55.0,-10.0,-8.178,3.662,16.235,0.0,0.0,0
187,26.1,100694.0,0.051,0.017,-1.086,-50.0,-55.0,-10.0,10.498,-1.892,11.047,0.0,0.0,0
188,26.1,100710.0,0.097,0.031,-0.909,-50.0,-55.0,-10.0,-27.832,6.042,12.39,0.0,0.0,0
189,26.1,100709.0,0.037,-0.015,-1.076,-50.0,-55.0,-10.0,-5.187,5.859,4.333,0.0,0.0,0
190,26.1,100700.0,0.038,0.039,-0.916,-50.0,-55.0,-10.0,0.366,5.676,3.54,0.0,0.0,0
191,26.1,100698.0,0.009,0.014,-0.958,-50.0,-55.0,-10.0,-9.033,-4.272,2.624,0.0,0.0,0
192,26.1,100705.0,0.078,0.006,-0.942,-50.0,-55.0,-10.0,-9.033,-4.15,5.554,0.0,0.0,0
193,26.1,100703.0,0.02,0.021,-1.056,-50.0,-55.0,-10.0,2.075,0.305,2.197,0.0,0.0,0
194,26.1,100704.0,0.023,0.009,-1.028,-50.0,-55.0,-10.0,8.728,-10.742,6.835,0.0,0.0,0
195,26.1,100699.0,0.012,-0.016,-1.059,-50.0,-55.0,-10.0,-20.629,14.16,-10.559,0.0,0.0,0
196,26.1,100695.0,0.03,0.034,-0.896,-50.0,-55.0,-10.0,19.592,-8.422,-11.596,0.0,0.0,0
197,26.1,100694.0,0.0,-0.019,-1.067,-50.0,-55.0,-10.0,-25.512,-6.103,-14.526,0.0,0.0,0
198,26.1,100701.0,0.028,0.059,-0.923,-50.0,-55.0,-10.0,-6.652,-9.399,-4.15,0.0,0.0,0
199,26.1,100703.0,0.028,0.052,-0.955,-50.0,-55.0,-10.0,-16.54,-8.544,-0.732,0.0,0.0,0
200,26.1,100712.0,0.04,0.007,-1.001,-50.0,-55.0,-10.0,-11.169,-2.258,2.563,0.0,0.0,0
201,26.1,100710.0,0.044,-0.058,-1.125,-50.0,-55.0,-10.0,0.122,0.976,10.864,0.0,0.0,0
202,26.1,100706.0,0.053,0.016,-0.958,-50.0,-55.0,-10.0,14.16,-1.953,3.295,0.0,0.0,0
203,26.1,100699.0,0.051,0.043,-0.959,-50.0,-55.0,-10.0,-10.314,-6.53,14.038,0.0,0.0,0
204,26.1,100706.0,0.09,-0.013,-0.995,-50.0,-55.0,-10.0,-4.943,-13.977,-1.464,0.0,0.0,0
205,26.1,100704.0,0.033,0.082,-0.892,-50.0,-55.0,-10.0,9.582,12.634,12.939,0.0,0.0,0
206,26.1,100703.0,-0.04,0.054,-1.022,-50.0,-55.0,-10.0,-33.752,4.394,-4.272,0.0,0.0,0
207,26.1,100700.0,0.087,-0.025,-1.014,-50.0,-55.0,-10.0,-6.347,-25.878,-8.178,0.0,0.0,0
208,26.1,100705.0,0.078,0.058,-0.954,-50.0,-55.0,-10.0,-10.131,-0.183,-13.671,0.0,0.0,0
209,26.1,100704.0,0.026,0.025,-1.048,-50.0,-55.0,-10.0,-2.746,17.883,-9.338,0.0,0.0,0
210,26.1,100704.0,0.065,0.088,-0.947,-50.0,-55.0,-10.0,4.943,-2.38,-20.507,0.0,0.0,0
211,26.1,100697.0,0.043,0.075,-1.051,-50.0,-55.0,-10.0,-12.207,-0.427,-18.859,0.0,0.0,0
212,26.1,100701.0,0.082,0.038,-0.996,-50.0,-55.0,-10.0,9.277,2.502,-22.766,0.0,0.0,0
213,26.1,100700.0,0.006,0.058,-0.983,-50.0,-55.0,-10.0,17.944,10.07,-18.676,0.0,0.0,0
214,26.1,100704.0,0.004,0.011,-1.015,-50.0,-55.0,-10.0,-13.732,7.202,-30.7,0.0,0.0,0
215,26.1,100707.0,0.054,-0.006,-0.92,-50.0,-55.0,-10.0,4.943,2.624,-30.029,0.0,0.0,0
216,26.1,100706.0,0.022,0.008,-0.975,-50.0,-55.0,-10.0,0.549,0.915,-27.16,0.0,0.0,0
217,26.1,100703.0,0.019,0.001,-0.991,-50.0,-55.0,-10.0,-16.54,-1.953,-28.015,0.0,0.0,0
218,26.1,100701.0,0.086,0.007,-0.919,-50.0,-55.0,-10.0,-9.033,-10.864,-11.84,0.0,0.0,0
219,26.1,100707.0,0.01,0.033,-0.941,-50.0,-55.0,-10.0,1.586,10.437,-6.469,0.0,0.0,0
220,26.1,100708.0,-0.019,0.03,-0.993,-50.0,-55.0,-10.0,-9.765,5.493,-7.141,0.0,0.0,0
221,26.1,100706.0,0.0,0.0,-1.06,-50.0,-55.0,-10.0,-7.263,9.704,-2.929,0.0,0.0,0
222,26.1,100705.0,0.034,0.077,-0.973,-50.0,-55.0,-10.0,9.704,2.38,10.07,0.0,0.0,0
223,26.1,100706.0,-0.034,0.063,-0.976,-50.0,-55.0,-10.0,-11.047,-0.671,18.005,0.0,0.0,0
224,26.1,100703.0,-0.022,0.026,-1.092,-50.0,-55.0,-10.0,3.967,1.281,19.409,0.0,0.0,0
225,26.1,100705.0,0.01,0.066,-0.963,-50.0,-55.0,-10.0,5.554,-20.507,23.376,0.0,0.0,0
226,26.1,100704.0,-0.011,0.025,-1.038,-50.0,-55.0,-10.0,-8.85,8.972,13.427,0.0,0.0,0
227,26.1,100703.0,0.031,0.033,-1.025,-50.0,-55.0,-10.0,-9.46,3.906,16.479,0.0,0.0,0
228,26.1,100705.0,-0.002,0.066,-0.986,-50.0,-55.0,-10.0,-4.699,8.789,19.226,0.0,0.0,0
229,26.1,100710.0,0.0,0.01,-1.016,-50.0,-55.0,-10.0,-7.873,-0.671,8.361,0.0,0.0,0
230,26.1,100701.0,0.035,0.038,-0.962,-50.0,-55.0,-10.0,-4.15,-14.465,9.46,0.0,0.0,0
231,26.1,100710.0,0.046,0.044,-0.979,-50.0,-55.0,-10.0,-23.803,-11.108,15.625,0.0,0.0,0
232,26.1,100708.0,0.058,-0.006,-0.936,-50.0,-55.0,-10.0,-0.305,-11.108,18.249,0.0,0.0,0
233,26.1,100705.0,0.067,-0.003,-0.973,-50.0,-55.0,-10.0,-13.916,-0.732,28.32,0.0,0.0,0
234,26.1,100706.0,0.059,0.02,-1.027,-50.0,-55.0,-10.0,15.869,-0.976,28.686,0.0,0.0,0
235,26.1,100707.0,-0.015,0.104,-0.911,-50.0,-55.0,-10.0,2.807,4.699,18.066,0.0,0.0,0
236,26.1,100703.0,0.067,0.015,-0.994,-50.0,-55.0,-10.0,-15.136,-4.089,27.709,0.0,0.0,0
237,26.1,100703.0,0.07,0.104,-0.974,-50.0,-55.0,-10.0,-5.737,-9.033,17.211,0.0,0.0,0
238,26.1,100703.0,0.024,-0.027,-1.1,-50.0,-55.0,-10.0,-32.409,7.019,15.808,0.0,0.0,0
239,26.1,100701.0,0.053,0.014,-0.933,-50.0,-55.0,-10.0,7.873,-13.793,24.169,0.0,0.0,0
240,26.1,100697.0,0.001,0.024,-0.95,-50.0,-55.0,-10.0,-23.071,-1.464,35.034,0.0,0.0,0
241,26.1,100699.0,-0.017,0.03,-0.991,-50.0,-55.0,-10.0,8.728,-4.272,37.597,0.0,0.0,0
242,26.1,100699.0,-0.003,0.055,-0.982,-50.0,-55.0,-10.0,-4.821,-4.516,35.766,0.0,0.0,0
243,26.1,100696.0,0.01,0.06,-0.969,-50.0,-55.0,-10.0,-2.38,3.112,39.794,0.0,0.0,0
244,26.1,100702.0,0.008,0.037,-1.087,-50.0,-55.0,-10.0,-23.62,-0.854,44.616,0.0,0.0,0
245,26.1,100703.0,-0.036,0.075,-0.943,-50.0,-55.0,-10.0,-7.629,7.202,16.418,0.0,0.0,0
246,26.1,100698.0,0.055,0.007,-1.017,-50.0,-55.0,-10.0,-24.23,-5.676,13.061,0.0,0.0,0
247,26.1,100699.0,0.083,0.072,-0.932,-50.0,-55.0,-10.0,4.089,-10.314,15.93,0.0,0.0,0
248,26.1,100705.0,0.145,0.041,-0.93,-50.0,-55.0,-10.0,-27.648,-2.075,17.15,0.0,0.0,0
249,26.1,100712.0,0.067,0.021,-0.979,-50.0,-55.0,-10.0,-6.408,1.708,16.418,0.0,0.0,0
250,26.1,100703.0,0.059,0.039,-1.023,-50.0,-55.0,-10.0,-0.427,3.967,19.958,0.0,0.0,0
251,26.1,100698.0,0.13,0.03,-0.967,-50.0,-55.0,-10.0,9.277,3.479,20.751,0.0,0.0,0
252,26.1,100703.0,0.042,0.011,-0.983,-50.0,-55.0,-10.0,14.648,13.549,26.0,0.0,0.0,0
253,26.1,100702.0,0.058,0.047,-0.98,-50.0,-55.0,-10.0,-1.098,1.953,30.822,0.0,0.0,0
254,26.1,100698.0,0.005,0.058,-1.055,-50.0,-55.0,-10.0,15.38,-9.765,21.24,0.0,0.0,0
255,26.1,100698.0,0.049,0.067,-0.937,-50.0,-55.0,-10.0,-15.197,-9.582,22.827,0.0,0.0,0
256,26.2,100702.0,-0.006,0.038,-1.05,-50.0,-55.0,-10.0,-22.033,-21.545,26.611,0.0,0.0,0
257,26.2,100708.0,0.01,0.064,-0.901,-50.0,-55.0,-10.0,-5.371,-8.605,34.545,0.0,0.0,0
258,26.1,100707.0,-0.046,0.023,-0.983,-50.0,-55.0,-10.0,-5.859,-11.84,41.687,0.0,0.0,0
259,26.2,100704.0,-0.077,0.061,-1.022,-50.0,-55.0,-10.0,-13.732,11.84,13.854,0.0,0.0,0
260,26.2,100701.0,-0.003,0.118,-0.967,-50.0,-55.0,-10.0,-17.7,-18.127,20.629,0.0,0.0,0
261,26.2,100706.0,0.027,0.102,-0.937,-50.0,-55.0,-10.0,-22.705,1.464,16.174,0.0,0.0,0
262,26.2,100703.0,0.031,0.078,-1.021,-50.0,-55.0,-10.0,-22.888,-3.601,-11.169,0.0,0.0,0
263,26.2,100707.0,0.04,0.039,-0.979,-50.0,-55.0,-10.0,11.108,-1.159,-16.662,0.0,0.0,0
264,26.2,100705.0,0.039,0.065,-0.97,-50.0,-55.0,-10.0,-24.963,-1.281,-24.719,0.0,0.0,0
265,26.2,100710.0,0.08,0.046,-0.966,-50.0,-55.0,-10.0,-12.207,-7.568,-18.92,0.0,0.0,0
266,26.2,100707.0,0.078,0.024,-0.952,-50.0,-55.0,-10.0,-0.976,11.962,-26.123,0.0,0.0,0
267,26.2,100705.0,0.049,0.031,-1.037,-50.0,-55.0,-10.0,5.126,6.225,-29.541,0.0,0.0,0
268,26.2,100700.0,0.135,0.001,-1.046,-50.0,-55.0,-10.0,4.943,-2.929,-19.775,0.0,0.0,0
269,26.2,100700.0,0.167,0.003,-1.047,-50.0,-55.0,-10.0,13.977,-3.967,6.469,0.0,0.0,0
270,26.2,100698.0,0.048,0.085,-0.946,-50.0,-55.0,-10.0,30.273,17.272,3.723,0.0,0.0,0
271,26.2,100702.0,0.034,0.026,-1.066,-50.0,-55.0,-10.0,-13.305,9.46,-8.605,0.0,0.0,0
272,26.2,100699.0,0.002,0.128,-0.931,-50.0,-55.0,-10.0,7.995,-3.417,-18.554,0.0,0.0,0
273,26.2,100704.0,0.058,0.055,-0.916,-50.0,-55.0,-10.0,-20.874,-1.037,-10.253,0.0,0.0,0
274,26.2,100706.0,-0.003,0.088,-0.937,-50.0,-55.0,-10.0,-1.037,8.544,-11.657,0.0,0.0,0
275,26.2,100705.0,0.006,0.08,-0.937,-50.0,-55.0,-10.0,-6.774,4.577,-3.723,0.0,0.0,0
276,26.2,100704.0,-0.03,0.088,-1.014,-50.0,-55.0,-10.0,-15.747,-6.225,0.793,0.0,0.0,0
277,26.2,100697.0,-0.025,0.078,-1.014,-50.0,-55.0,-10.0,-4.394,-11.23,12.207,0.0,0.0,0
278,26.2,100710.0,-0.029,0.04,-1.015,-50.0,-55.0,-10.0,-13.122,1.342,7.751,0.0,0.0,0
279,26.2,100709.0,-0.009,0.08,-1.025,-50.0,-55.0,-10.0,12.573,7.507,5.004,0.0,0.0,0
280,26.2,100709.0,-0.054,0.012,-1.085,-50.0,-55.0,-10.0,-27.404,10.742,1.525,0.0,0.0,0
281,26.2,100703.0,0.068,0.021,-0.993,-50.0,-55.0,-10.0,12.451,-19.653,6.53,0.0,0.0,0
282,26.2,100700.0,0.027,0.023,-0.969,-50.0,-55.0,-10.0,-23.864,15.197,-6.652,0.0,0.0,0
283,26.2,100703.0,0.055,-0.009,-1.007,-50.0,-55.0,-10.0,-8.544,-11.291,-9.521,0.0,0.0,0
284,26.2,100705.0,0.092,0.047,-0.866,-50.0,-55.0,-10.0,-2.38,-9.338,-1.586,0.0,0.0,0
285,26.2,100702.0,0.098,0.029,-0.982,-50.0,-55.0,-10.0,-13.671,-6.835,-0.915,0.0,0.0,0
286,26.2,100700.0,0.081,0.013,-1.027,-50.0,-55.0,-10.0,0.244,5.065,-0.732,0.0,0.0,0
287,26.2,100699.0,0.021,0.023,-0.991,-50.0,-55.0,-10.0,23.193,9.155,-1.22,0.0,0.0,0
288,26.2,100700.0,0.018,0.06,-0.978,-50.0,-55.0,-10.0,12.023,-10.559,2.868,0.0,0.0,0
289,26.2,100700.0,0.003,-0.028,-1.117,-50.0,-55.0,-10.0,-24.475,7.873,-15.93,0.0,0.0,0
290,26.2,100695.0,0.0,0.128,-0.896,-50.0,-55.0,-10.0,16.845,4.394,-19.47,0.0,0.0,0
291,26.2,100702.0,-0.016,0.023,-1.065,-50.0,-55.0,-10.0,-47.973,-16.174,-5.981,0.0,0.0,0
292,26.2,100700.0,0.049,-0.003,-0.911,-50.0,-55.0,-10.0,9.277,-14.77,-12.878,0.0,0.0,0
293,26.2,100702.0,0.016,0.025,-0.871,-50.0,-55.0,-10.0,-8.117,-7.385,-12.329,0.0,0.0,0
294,26.2,100705.0,0.016,0.001,-1.031,-50.0,-55.0,-10.0,-9.094,-1.77,-3.112,0.0,0.0,0
295,26.2,100702.0,0.029,0.056,-1.006,-50.0,-55.0,-10.0,11.779,-4.272,16.662,0.0,0.0,0
296,26.2,100705.0,0.03,0.003,-1.059,-50.0,-55.0,-10.0,-6.591,21.911,7.202,0.0,0.0,0
297,26.2,100705.0,0.023,0.006,-1.07,-50.0,-55.0,-10.0,1.281,22.277,-4.333,0.0,0.0,0
298,26.2,100702.0,0.079,-0.051,-1.012,-50.0,-55.0,-10.0,-1.342,-22.705,27.099,0.0,0.0,0
299,26.2,100705.0,0.038,0.127,-0.845,-50.0,-55.0,-10.0,-17.883,-9.887,10.62,0.0,0.0,0
300,26.2,100707.0,0.061,-0.016,-1.061,-50.0,-55.0,-10.0,-20.263,-13.488,12.634,0.0,0.0,0
301,26.2,100706.0,0.07,0.042,-0.929,-50.0,-55.0,-10.0,-2.807,-4.699,18.188,0.0,0.0,0
302,26.2,100707.0,-0.001,0.035,-1.011,-50.0,-55.0,-10.0,-17.517,4.394,15.747,0.0,0.0,0
303,26.2,100709.0,0.069,0.037,-0.938,-50.0,-55.0,-10.0,16.296,7.995,8.178,0.0,0.0,0
304,26.2,100704.0,0.0,0.038,-1.059,-50.0,-55.0,-10.0,-7.324,5.432,27.587,0.0,0.0,0
305,26.2,100705.0,0.051,0.095,-0.907,-50.0,-55.0,-10.0,4.028,-0.488,21.24,0.0,0.0,0
306,26.2,100704.0,-0.017,0.004,-1.027,-50.0,-55.0,-10.0,-2.929,-4.821,12.817,0.0,0.0,0
307,26.2,100702.0,0.035,-0.025,-1.024,-50.0,-55.0,-10.0,-30.456,-18.737,26.062,0.0,0.0,0
308,26.2,100701.0,-0.053,0.024,-1.122,-50.0,-55.0,-10.0,-4.76,26.794,-12.878,0.0,0.0,0
309,26.2,100702.0,0.054,-0.002,-0.981,-50.0,-55.0,-10.0,-7.751,-11.047,-6.225,0.0,0.0,0
310,26.2,100703.0,0.053,0.042,-0.877,-50.0,-55.0,-10.0,-4.577,-14.831,2.563,0.0,0.0,0
311,26.2,100714.0,0.066,-0.019,-0.937,-50.0,-55.0,-10.0,-5.859,-5.004,-2.624,0.0,0.0,0
312,26.2,100714.0,0.004,-0.009,-0.974,-50.0,-55.0,-10.0,8.178,-15.808,17.883,0.0,0.0,0
313,26.2,100709.0,-0.012,0.011,-1.059,-50.0,-55.0,-10.0,15.93,0.122,33.691,0.0,0.0,0
314,26.2,100702.0,0.04,0.085,-0.955,-50.0,-55.0,-10.0,9.521,3.479,11.596,0.0,0.0,0
315,26.2,100707.0,0.027,-0.012,-1.123,-50.0,-55.0,-10.0,-28.747,12.39,-3.601,0.0,0.0,0
316,26.2,100709.0,0.094,0.035,-0.902,-50.0,-55.0,-10.0,1.464,-15.38,13.122,0.0,0.0,0
317,26.2,100706.0,0.039,-0.009,-1.016,-50.0,-55.0,-10.0,-20.446,1.281,-18.615,0.0,0.0,0
318,26.2,100710.0,0.085,0.0,-0.983,-50.0,-55.0,-10.0,-10.925,-15.93,-7.202,0.0,0.0,0
319,26.2,100707.0,0.101,0.081,-0.837,-50.0,-55.0,-10.0,-6.286,-5.92,-4.333,0.0,0.0,0
320,26.2,100710.0,0.115,0.008,-0.961,-50.0,-55.0,-10.0,-7.446,2.502,-0.671,0.0,0.0,0
321,26.2,100703.0,0.106,0.039,-0.996,-50.0,-55.0,-10.0,-1.037,13.977,8.056,0.0,0.0,0
322,26.2,100705.0,0.089,0.079,-1.002,-50.0,-55.0,-10.0,3.173,10.498,12.817,0.0,0.0,0
323,26.2,100707.0,0.018,0.079,-0.954,-50.0,-55.0,-10.0,-0.244,9.338,-9.582,0.0,0.0,0
324,26.2,100704.0,0.027,-0.014,-1.041,-50.0,-55.0,-10.0,-35.034,18.859,-1.281,0.0,0.0,0
325,26.2,100708.0,-0.038,0.025,-1.092,-50.0,-55.0,-10.0,8.3,4.943,7.141,0.0,0.0,0
326,26.2,100705.0,-0.006,0.015,-1.006,-50.0,-55.0,-10.0,-19.409,0.854,-23.498,0.0,0.0,0
327,26.2,100707.0,0.041,-0.087,-1.095,-50.0,-55.0,-10.0,-12.329,-14.221,-11.718,0.0,0.0,0
328,26.2,100700.0,-0.048,0.048,-0.916,-50.0,-55.0,-10.0,13.671,-14.404,5.737,0.0,0.0,0
329,26.2,100703.0,0.001,0.004,-0.942,-50.0,-55.0,-10.0,0.427,-11.84,3.662,0.0,0.0,0
330,26.2,100704.0,0.047,0.032,-0.977,-50.0,-55.0,-10.0,9.521,-20.446,12.573,0.0,0.0,0
331,26.2,100708.0,0.055,-0.018,-0.955,-50.0,-55.0,-10.0,19.531,28.015,16.174,0.0,0.0,0
332,26.2,100711.0,0.045,0.023,-1.017,-50.0,-55.0,-10.0,-18.859,6.347,-0.549,0.0,0.0,0
333,26.2,100704.0,0.08,-0.064,-1.215,-50.0,-55.0,-10.0,-22.216,18.798,-8.056,0.0,0.0,0
334,26.2,100703.0,0.091,0.117,-0.806,-50.0,-55.0,-10.0,11.108,-7.507,18.798,0.0,0.0,0
335,26.2,100700.0,0.042,-0.022,-1.116,-50.0,-55.0,-10.0,-32.287,-5.126,-13.305,0.0,0.0,0
336,26.2,100704.0,0.091,0.083,-0.847,-50.0,-55.0,-10.0,5.493,-6.53,8.239,0.0,0.0,0
337,26.2,100707.0,0.024,0.083,-0.929,-50.0,-55.0,-10.0,-0.976,-9.887,-1.22,0.0,0.0,0
338,26.2,100701.0,0.046,0.026,-0.951,-50.0,-55.0,-10.0,-1.647,3.417,-9.46,0.0,0.0,0
339,26.2,100706.0,0.122,0.06,-0.942,-50.0,-55.0,-10.0,3.417,5.981,-3.173,0.0,0.0,0
340,26.2,100699.0,0.077,0.094,-1.082,-50.0,-55.0,-10.0,13.793,20.751,0.183,0.0,0.0,0
341,26.2,100709.0,0.089,-0.019,-0.939,-50.0,-55.0,-10.0,-12.878,-11.23,4.943,0.0,0.0,0
342,26.2,100704.0,-0.027,0.108,-1.058,-50.0,-55.0,-10.0,10.62,-31.677,29.907,0.0,0.0,0
343,26.2,100698.0,0.066,-0.028,-1.016,-50.0,-55.0,-10.0,-28.381,24.963,-32.165,0.0,0.0,0
344,26.2,100712.0,0.012,0.042,-0.976,-50.0,-55.0,-10.0,-14.709,-16.601,-6.713,0.0,0.0,0
345,26.2,100708.0,0.069,0.041,-0.871,-50.0,-55.0,-10.0,-4.516,-14.16,2.99,0.0,0.0,0
346,26.2,100707.0,0.041,0.021,-0.926,-50.0,-55.0,-10.0,-14.221,10.742,2.502,0.0,0.0,0
347,26.2,100704.0,0.014,0.004,-1.082,-50.0,-55.0,-10.0,-6.835,5.554,17.578,0.0,0.0,0
348,26.2,100705.0,0.068,0.02,-1.083,-50.0,-55.0,-10.0,18.432,-6.896,20.08,0.0,0.0,0
349,26.2,100701.0,0.058,0.145,-0.953,-50.0,-55.0,-10.0,-4.455,30.456,8.117,0.0,0.0,0
350,26.2,100703.0,0.126,-0.046,-1.02,-50.0,-55.0,-10.0,1.647,-32.958,23.925,0.0,0.0,0
351,26.2,100707.0,0.056,-0.016,-1.009,-50.0,-55.0,-10.0,-29.968,18.737,-14.831,0.0,0.0,0
352,26.2,100704.0,0.032,0.073,-0.95,-50.0,-55.0,-10.0,-5.92,2.502,7.995,0.0,0.0,0
353,26.2,100706.0,0.08,0.044,-0.881,-50.0,-55.0,-10.0,-6.042,-1.647,3.173,0.0,0.0,0
354,26.2,100703.0,0.021,0.106,-0.944,-50.0,-55.0,-10.0,-6.408,-3.479,-3.54,0.0,0.0,0
355,26.2,100707.0,0.091,0.022,-0.949,-50.0,-55.0,-10.0,-1.037,7.812,10.559,0.0,0.0,0
356,26.2,100705.0,0.082,0.034,-0.995,-50.0,-55.0,-10.0,6.408,-2.868,18.676,0.0,0.0,0
357,26.2,100705.0,0.031,0.08,-0.978,-50.0,-55.0,-10.0,9.948,4.699,18.005,0.0,0.0,0
358,26.2,100710.0,0.062,-0.048,-1.079,-50.0,-55.0,-10.0,-28.076,13.61,-3.54,0.0,0.0,0
359,26.2,100705.0,0.027,0.046,-0.976,-50.0,-55.0,-10.0,-6.835,-16.601,-1.403,0.0,0.0,0
360,26.2,100709.0,-0.024,0.06,-1.07,-50.0,-55.0,-10.0,-11.413,-5.737,-0.854,0.0,0.0,0
361,26.2,100700.0,0.021,0.028,-0.924,-50.0,-55.0,-10.0,-3.173,-11.474,-14.648,0.0,0.0,0
362,26.2,100706.0,0.028,0.027,-0.915,-50.0,-55.0,-10.0,-8.361,-0.244,-5.615,0.0,0.0,0
363,26.2,100712.0,0.018,0.049,-0.941,-50.0,-55.0,-10.0,-6.53,6.042,9.094,0.0,0.0,0
364,26.2,100704.0,0.025,0.041,-0.946,-50.0,-55.0,-10.0,3.417,11.596,26.062,0.0,0.0,0
365,26.2,100706.0,-0.017,0.053,-1.101,-50.0,-55.0,-10.0,12.573,-1.831,16.174,0.0,0.0,0
366,26.2,100699.0,0.029,0.117,-0.932,-50.0,-55.0,-10.0,-21.606,4.028,-2.746,0.0,0.0,0
367,26.2,100710.0,0.079,-0.118,-1.199,-50.0,-55.0,-10.0,2.136,-18.554,12.756,0.0,0.0,0
368,26.2,100705.0,0.011,0.062,-0.962,-50.0,-55.0,-10.0,-16.906,20.996,-17.272,0.0,0.0,0
369,26.2,100707.0,0.039,0.003,-0.993,-50.0,-55.0,-10.0,-15.197,-14.831,-2.38,0.0,0.0,0
370,26.2,100713.0,0.044,0.092,-0.83,-50.0,-55.0,-10.0,-0.854,-3.417,0.61,0.0,0.0,0
371,26.2,100707.0,0.029,0.087,-0.951,-50.0,-55.0,-10.0,-8.422,-3.051,-3.54,0.0,0.0,0
372,26.2,100704.0,0.039,0.086,-0.974,-50.0,-55.0,-10.0,2.197,2.502,2.258,0.0,0.0,0
373,26.2,100707.0,0.042,0.072,-1.104,-50.0,-55.0,-10.0,-0.488,-4.638,-2.136,0.0,0.0,0
374,26.2,100711.0,0.107,0.094,-0.954,-50.0,-55.0,-10.0,-2.685,-13.244,-0.854,0.0,0.0,0
375,26.2,100701.0,-0.008,-0.008,-1.2,-50.0,-55.0,-10.0,-16.357,23.437,-11.962,0.0,0.0,0
376,26.2,100700.0,0.019,-0.004,-0.947,-50.0,-55.0,-10.0,-8.85,-18.676,-32.714,0.0,0.0,0
377,26.2,100706.0,0.014,0.006,-0.972,-50.0,-55.0,-10.0,-7.507,-18.737,-13.549,0.0,0.0,0
378,26.2,100713.0,0.022,-0.028,-0.916,-50.0,-55.0,-10.0,9.46,-6.225,-9.521,0.0,0.0,0
379,26.2,100702.0,0.022,0.012,-0.872,-50.0,-55.0,-10.0,-0.854,-4.882,-3.601,0.0,0.0,0
380,26.2,100700.0,0.08,-0.02,-0.966,-50.0,-55.0,-10.0,-1.953,1.525,12.207,0.0,0.0,0
381,26.2,100706.0,-0.004,0.082,-1.069,-50.0,-55.0,-10.0,14.343,-1.831,20.202,0.0,0.0,0
382,26.2,100702.0,0.035,0.099,-1.046,-50.0,-55.0,-10.0,-15.808,5.493,5.615,0.0,0.0,0
383,26.2,100702.0,0.188,-0.053,-1.097,-50.0,-55.0,-10.0,5.676,-21.85,-3.234,0.0,0.0,0
384,26.2,100708.0,0.083,0.014,-1.029,-50.0,-55.0,-10.0,-8.117,22.583,-16.235,0.0,0.0,0
385,26.2,100706.0,0.156,-0.06,-0.932,-50.0,-55.0,-10.0,-4.455,-10.131,2.319,0.0,0.0,0
386,26.2,100706.0,0.059,0.126,-0.789,-50.0,-55.0,-10.0,4.638,-8.056,7.568,0.0,0.0,0
387,26.2,100706.0,0.069,0.082,-0.875,-50.0,-55.0,-10.0,-9.948,0.366,-9.887,0.0,0.0,0
388,26.2,100702.0,0.071,0.082,-0.928,-50.0,-55.0,-10.0,-0.976,8.178,-2.136,0.0,0.0,0
389,26.2,100702.0,0.112,0.137,-1.015,-50.0,-55.0,-10.0,-1.464,-1.22,11.84,0.0,0.0,0
390,26.2,100709.0,0.121,0.108,-1.109,-50.0,-55.0,-10.0,-1.464,-4.821,-10.009,0.0,0.0,0
391,26.2,100704.0,0.075,-0.104,-1.235,-50.0,-55.0,-10.0,-13.122,38.085,22.399,0.0,0.0,0
392,26.2,100705.0,0.01,0.056,-0.938,-50.0,-55.0,-10.0,-2.502,6.042,-6.042,0.0,0.0,0
393,26.2,100703.0,0.016,0.097,-0.982,-50.0,-55.0,-10.0,-10.681,-17.395,4.638,0.0,0.0,0
394,26.299,100703.0,0.029,0.035,-0.874,-50.0,-55.0,-10.0,0.61,-20.385,8.85,0.0,0.0,0
395,26.2,100703.0,0.038,0.005,-0.907,-50.0,-55.0,-10.0,-4.455,4.577,19.287,0.0,0.0,0
396,26.2,100704.0,0.035,0.031,-0.953,-50.0,-55.0,-10.0,6.591,10.314,33.02,0.0,0.0,0
397,26.299,100706.0,-0.02,0.052,-1.099,-50.0,-55.0,-10.0,-1.403,18.432,3.845,0.0,0.0,0
398,26.299,100712.0,-0.008,0.057,-1.081,-50.0,-55.0,-10.0,-14.892,14.587,32.958,0.0,0.0,0
399,26.2,100703.0,0.0,0.047,-1.067,-50.0,-55.0,-10.0,-13.0,3.356,-3.173,0.0,0.0,0
400,26.2,100711.0,0.036,0.031,-0.975,-50.0,-55.0,-10.0,-23.254,-9.826,-6.164,0.0,0.0,0
401,26.2,100704.0,-0.004,0.104,-0.901,-50.0,-55.0,-10.0,0.976,-19.409,-6.164,0.0,0.0,0
402,26.2,100708.0,0.007,0.099,-0.942,-50.0,-55.0,-10.0,-11.291,-7.995,-10.864,0.0,0.0,0
403,26.2,100704.0,0.023,0.074,-0.968,-50.0,-55.0,-10.0,1.342,5.737,-0.61,0.0,0.0,0
404,26.299,100708.0,0.018,0.094,-1.03,-50.0,-55.0,-10.0,0.427,-8.422,0.549,0.0,0.0,0
405,26.2,100709.0,-0.006,0.027,-1.027,-50.0,-55.0,-10.0,-1.892,-1.22,-10.864,0.0,0.0,0
406,26.2,100702.0,0.0,-0.037,-1.128,-50.0,-55.0,-10.0,-7.995,-16.052,-10.742,0.0,0.0,0
407,26.299,100703.0,-0.014,0.02,-0.979,-50.0,-55.0,-10.0,-16.479,15.625,-33.752,0.0,0.0,0
408,26.2,100706.0,0.064,-0.011,-0.941,-50.0,-55.0,-10.0,-20.751,-9.033,-20.507,0.0,0.0,0
409,26.299,100703.0,-0.021,0.012,-0.931,-50.0,-55.0,-10.0,-1.22,-22.644,-27.832,0.0,0.0,0
410,26.299,100698.0,0.012,-0.02,-0.899,-50.0,-55.0,-10.0,-7.568,-7.995,-7.995,0.0,0.0,0
411,26.2,100699.0,0.029,-0.029,-0.933,-50.0,-55.0,-10.0,-1.464,-3.601,2.258,0.0,0.0,0
412,26.299,100703.0,-0.029,0.024,-1.07,-50.0,-55.0,-10.0,15.38,4.821,11.23,0.0,0.0,0
413,26.299,100701.0,0.021,-0.03,-1.096,-50.0,-55.0,-10.0,-15.869,8.117,-2.014,0.0,0.0,0
414,26.299,100700.0,0.1,-0.054,-1.037,-50.0,-55.0,-10.0,13.0,-9.277,17.089,0.0,0.0,0
415,26.299,100704.0,0.041,0.084,-0.976,-50.0,-55.0,-10.0,-18.493,14.892,-18.249,0.0,0.0,0
416,26.299,100706.0,0.076,0.008,-0.991,-50.0,-55.0,-10.0,-15.319,-10.681,-5.187,0.0,0.0,0
417,26.2,100699.0,0.091,0.024,-0.882,-50.0,-55.0,-10.0,-10.803,-4.76,-1.708,0.0,0.0,0
418,26.299,100710.0,0.047,0.076,-0.889,-50.0,-55.0,-10.0,-4.211,-8.666,-3.845,0.0,0.0,0
419,26.299,100705.0,0.044,0.014,-0.985,-50.0,-55.0,-10.0,0.976,8.85,10.192,0.0,0.0,0
420,26.299,100703.0,0.122,0.014,-1.017,-50.0,-55.0,-10.0,6.347,-2.624,4.882,0.0,0.0,0
421,26.299,100713.0,0.001,0.069,-1.005,-50.0,-55.0,-10.0,1.77,-0.793,-3.845,0.0,0.0,0
422,26.299,100705.0,0.057,-0.125,-1.197,-50.0,-55.0,-10.0,-26.306,6.103,-7.263,0.0,0.0,0
423,26.299,100709.0,-0.022,0.012,-1.001,-50.0,-55.0,-10.0,-14.282,2.38,-22.338,0.0,0.0,0
424,26.299,100705.0,0.013,-0.027,-1.025,-50.0,-55.0,-10.0,-10.742,-8.605,-11.718,0.0,0.0,0
425,26.299,100712.0,0.016,-0.023,-0.939,-50.0,-55.0,-10.0,2.075,-8.3,0.61,0.0,0.0,0
426,26.299,100713.0,-0.031,-0.006,-1.004,-50.0,-55.0,-10.0,-1.892,-6.103,-4.272,0.0,0.0,0
427,26.2,100706.0,0.002,-0.018,-0.952,-50.0,-55.0,-10.0,0.366,-14.953,2.136,0.0,0.0,0
428,26.299,100704.0,-0.003,0.07,-0.926,-50.0,-55.0,-10.0,8.789,-10.314,4.15,0.0,0.0,0
429,26.299,100706.0,-0.011,0.015,-1.072,-50.0,-55.0,-10.0,5.859,5.798,-5.981,0.0,0.0,0
430,26.299,100708.0,0.097,-0.019,-1.005,-50.0,-55.0,-10.0,4.699,0.488,1.647,0.0,0.0,0
431,26.299,100710.0,0.04,-0.014,-1.162,-50.0,-55.0,-10.0,-5.92,31.127,-1.159,0.0,0.0,0
432,26.299,100708.0,0.054,0.075,-0.884,-50.0,-55.0,-10.0,-13.366,-1.159,-8.483,0.0,0.0,0
433,26.299,100705.0,0.063,-0.025,-1.088,-50.0,-55.0,-10.0,-14.465,-20.385,-10.559,0.0,0.0,0
434,26.299,100712.0,0.129,0.032,-0.868,-50.0,-55.0,-10.0,-6.652,-8.117,6.469,0.0,0.0,0
435,26.299,100707.0,0.062,0.058,-0.958,-50.0,-55.0,-10.0,0.305,3.784,-4.028,0.0,0.0,0
436,26.299,100714.0,0.125,0.087,-0.838,-50.0,-55.0,-10.0,5.065,-2.502,4.15,0.0,0.0,0
437,26.299,100709.0,0.053,0.068,-1.014,-50.0,-55.0,-10.0,-4.211,25.695,0.427,0.0,0.0,0
438,26.299,100712.0,0.061,0.118,-0.911,-50.0,-55.0,-10.0,14.282,-17.944,14.892,0.0,0.0,0
439,26.299,100709.0,0.031,-0.011,-1.102,-50.0,-55.0,-10.0,-14.953,17.333,2.502,0.0,0.0,0
440,26.299,100711.0,0.059,-0.023,-1.131,-50.0,-55.0,-10.0,7.995,-1.403,18.859,0.0,0.0,0
441,26.299,100709.0,-0.001,0.142,-0.979,-50.0,-55.0,-10.0,-24.291,16.662,-25.024,0.0,0.0,0
442,26.299,100711.0,0.059,0.063,-0.95,-50.0,-55.0,-10.0,-13.854,-24.902,-18.493,0.0,0.0,0
443,26.299,100707.0,0.081,0.005,-0.898,-50.0,-55.0,-10.0,-11.23,-11.169,-3.112,0.0,0.0,0
444,26.299,100711.0,0.011,0.051,-0.946,-50.0,-55.0,-10.0,3.906,15.808,2.807,0.0,0.0,0
445,26.299,100716.0,0.01,0.042,-0.916,-50.0,-55.0,-10.0,2.929,-17.517,17.272,0.0,0.0,0
446,26.299,100706.0,-0.006,0.033,-1.069,-50.0,-55.0,-10.0,2.319,4.211,14.648,0.0,0.0,0
447,26.299,100711.0,0.017,0.115,-1.05,-50.0,-55.0,-10.0,6.042,-6.835,4.638,0.0,0.0,0
448,26.299,100710.0,0.067,-0.007,-1.149,-50.0,-55.0,-10.0,-23.315,15.991,-4.638,0.0,0.0,0
449,26.299,100704.0,0.1,0.069,-0.894,-50.0,-55.0,-10.0,8.789,-12.207,19.104,0.0,0.0,0
450,26.299,100709.0,0.059,0.017,-1.09,-50.0,-55.0,-10.0,-18.981,10.864,-21.972,0.0,0.0,0
451,26.299,100709.0,0.188,0.033,-0.872,-50.0,-55.0,-10.0,4.76,-21.484,-0.793,0.0,0.0,0
452,26.299,100706.0,0.117,0.124,-0.872,-50.0,-55.0,-10.0,-4.821,-2.624,4.943,0.0,0.0,0
453,26.299,100709.0,0.102,0.152,-0.855,-50.0,-55.0,-10.0,-3.295,-5.859,2.685,0.0,0.0,0
454,26.299,100715.0,0.032,0.148,-0.95,-50.0,-55.0,-10.0,3.601,6.103,2.624,0.0,0.0,0
455,26.299,100711.0,0.171,0.056,-1.078,-50.0,-55.0,-10.0,-8.666,0.061,2.563,0.0,0.0,0
456,26.299,100707.0,0.014,0.175,-1.013,-50.0,-55.0,-10.0,5.798,-11.535,7.324,0.0,0.0,0
457,26.299,100710.0,0.112,-0.047,-1.235,-50.0,-55.0,-10.0,-19.653,24.536,-8.361,0.0,0.0,0
458,26.299,100700.0,-0.002,0.11,-0.864,-50.0,-55.0,-10.0,-16.296,1.77,-26.062,0.0,0.0,0
459,26.299,100701.0,0.034,0.038,-0.982,-50.0,-55.0,-10.0,-8.544,-10.437,5.249,0.0,0.0,0
460,26.299,100704.0,0.007,-0.037,-0.948,-50.0,-55.0,-10.0,-1.953,-2.319,-7.873,0.0,0.0,0
461,26.299,100707.0,0.013,0.027,-0.964,-50.0,-55.0,-10.0,-3.295,-5.676,-4.211,0.0,0.0,0
462,26.299,100701.0,0.079,0.048,-0.861,-50.0,-55.0,-10.0,7.873,6.896,17.333,0.0,0.0,0
463,26.299,100714.0,-0.146,0.124,-1.16,-50.0,-55.0,-10.0,7.995,16.601,13.427,0.0,0.0,0
464,26.299,100706.0,0.119,0.011,-0.96,-50.0,-55.0,-10.0,3.723,10.803,-9.155,0.0,0.0,0
465,26.299,100712.0,0.155,-0.028,-1.182,-50.0,-55.0,-10.0,-15.869,-6.53,2.685,0.0,0.0,0
466,26.299,100719.0,0.014,0.21,-0.849,-50.0,-55.0,-10.0,0.122,19.897,-1.281,0.0,0.0,0
467,26.299,100712.0,0.076,0.058,-1.032,-50.0,-55.0,-10.0,-34.301,-19.958,10.62,0.0,0.0,0
468,26.299,100714.0,0.109,0.069,-0.944,-50.0,-55.0,-10.0,7.202,-1.708,6.408,0.0,0.0,0
469,26.299,100715.0,0.033,0.142,-0.824,-50.0,-55.0,-10.0,3.54,2.502,0.732,0.0,0.0,0
470,26.299,100712.0,0.011,0.151,-0.909,-50.0,-55.0,-10.0,1.403,-0.793,6.042,0.0,0.0,0
471,26.299,100720.0,-0.014,0.125,-0.99,-50.0,-55.0,-10.0,-7.69,3.967,-5.249,0.0,0.0,0
472,26.299,100714.0,0.029,0.144,-0.913,-50.0,-55.0,-10.0,-2.929,-24.414,8.239,0.0,0.0,0
473,26.299,100712.0,-0.082,0.135,-1.184,-50.0,-55.0,-10.0,-11.779,26.55,-5.493,0.0,0.0,0
474,26.299,100709.0,0.116,0.029,-1.022,-50.0,-55.0,-10.0,13.122,-10.864,7.141,0.0,0.0,0
475,26.299,100712.0,0.014,0.218,-0.949,-50.0,-55.0,-10.0,-31.494,-12.329,-19.653,0.0,0.0,0
476,26.299,100711.0,0.074,0.021,-1.028,-50.0,-55.0,-10.0,-10.009,-12.817,-10.864,0.0,0.0,0
477,26.299,100712.0,0.063,0.04,-0.877,-50.0,-55.0,-10.0,-9.643,3.54,1.953,0.0,0.0,0
478,26.299,100714.0,0.01,0.082,-0.942,-50.0,-55.0,-10.0,-0.793,-7.568,5.004,0.0,0.0,0
479,26.299,100719.0,0.054,0.085,-0.971,-50.0,-55.0,-10.0,2.075,7.751,16.357,0.0,0.0,0
480,26.299,100705.0,0.05,0.048,-0.961,-50.0,-55.0,-10.0,-10.009,6.103,-2.563,0.0,0.0,0
481,26.299,100715.0,0.085,0.026,-1.083,-50.0,-55.0,-10.0,2.014,-24.963,16.845,0.0,0.0,0
482,26.299,100709.0,0.056,0.081,-1.07,-50.0,-55.0,-10.0,11.84,-4.577,17.822,0.0,0.0,0
483,26.299,100709.0,0.038,0.095,-0.99,-50.0,-55.0,-10.0,-23.254,2.502,-26.611,0.0,0.0,0
484,26.299,100713.0,0.173,-0.03,-0.943,-50.0,-55.0,-10.0,-19.531,-9.033,-9.826,0.0,0.0,0
485,26.299,100707.0,0.041,0.143,-0.903,-50.0,-55.0,-10.0,-7.812,2.075,-0.244,0.0,0.0,0
486,26.299,100702.0,0.084,0.071,-0.975,-50.0,-55.0,-10.0,-8.911,4.028,-2.258,0.0,0.0,0
487,26.299,100711.0,0.109,0.131,-0.876,-50.0,-55.0,-10.0,0.427,4.211,-0.854,0.0,0.0,0
488,26.299,100707.0,0.083,0.075,-1.064,-50.0,-55.0,-10.0,5.493,-16.235,10.253,0.0,0.0,0
489,26.299,100708.0,0.032,0.076,-1.041,-50.0,-55.0,-10.0,10.192,0.793,-0.549,0.0,0.0,0
490,26.299,100713.0,0.02,-0.023,-1.279,-50.0,-55.0,-10.0,-15.136,4.15,1.22,0.0,0.0,0
491,26.299,100713.0,0.087,0.033,-0.916,-50.0,-55.0,-10.0,-28.076,4.333,-36.254,0.0,0.0,0
492,26.299,100708.0,0.061,0.057,-0.895,-50.0,-55.0,-10.0,-10.681,-30.212,-2.563,0.0,0.0,0
493,26.299,100715.0,0.032,0.074,-0.857,-50.0,-55.0,-10.0,11.108,3.479,-8.85,0.0,0.0,0
494,26.299,100713.0,0.105,-0.023,-0.9,-50.0,-55.0,-10.0,-0.61,-3.417,-2.014,0.0,0.0,0
495,26.299,100708.0,0.06,0.062,-1.007,-50.0,-55.0,-10.0,-0.976,10.681,18.127,0.0,0.0,0
496,26.299,100714.0,0.057,0.028,-1.081,-50.0,-55.0,-10.0,-1.22,15.625,6.713,0.0,0.0,0
497,26.299,100714.0,0.07,0.029,-1.08,-50.0,-55.0,-10.0,-18.432,12.878,14.526,0.0,0.0,0
498,26.299,100715.0,0.071,0.116,-0.901,-50.0,-55.0,-10.0,4.699,2.99,13.732,0.0,0.0,0
499,26.299,100712.0,0.123,-0.008,-0.99,-50.0,-55.0,-10.0,-21.85,-21.118,0.671,0.0,0.0,0
500,26.299,100711.0,0.008,0.192,-0.911,-50.0,-55.0,-10.0,-4.394,19.958,25.329,0.0,0.0,0
501,26.299,100710.0,0.022,-0.012,-0.97,-50.0,-55.0,-10.0,1.953,0.0,-16.845,0.0,0.0,0
502,26.299,100708.0,0.149,0.004,-0.869,-50.0,-55.0,-10.0,13.061,-16.235,7.08,0.0,0.0,0
503,26.299,100712.0,-0.014,0.129,-1.004,-50.0,-55.0,-10.0,3.601,0.915,-14.892,0.0,0.0,0
504,26.299,100706.0,-0.08,0.209,-1.048,-50.0,-55.0,-10.0,14.221,19.897,3.051,0.0,0.0,0
505,26.299,100715.0,0.201,-0.142,-1.286,-50.0,-55.0,-10.0,-28.381,29.113,-13.122,0.0,0.0,0
506,26.299,100708.0,0.12,0.179,-0.703,-50.0,-55.0,-10.0,-18.432,-31.066,-19.653,0.0,0.0,0
507,26.299,100706.0,-0.156,0.079,-1.05,-50.0,-55.0,-10.0,-12.939,-9.216,-22.583,0.0,0.0,0
508,26.299,100702.0,0.075,-0.033,-0.939,-50.0,-55.0,-10.0,-4.15,1.098,-11.23,0.0,0.0,0
509,26.299,100705.0,0.033,0.084,-0.793,-50.0,-55.0,-10.0,-12.817,-29.418,22.216,0.0,0.0,0
510,26.299,100709.0,0.045,-0.023,-1.088,-50.0,-55.0,-10.0,2.258,30.151,14.038,0.0,0.0,0
511,26.299,100711.0,-0.125,0.184,-1.045,-50.0,-55.0,-10.0,27.282,-11.291,9.887,0.0,0.0,0
512,26.299,100708.0,0.057,-0.009,-1.125,-50.0,-55.0,-10.0,-39.978,2.563,-26.794,0.0,0.0,0
513,26.299,100711.0,0.086,0.046,-0.931,-50.0,-55.0,-10.0,15.686,-5.004,38.94,0.0,0.0,0
514,26.299,100708.0,0.11,-0.006,-1.033,-50.0,-55.0,-10.0,-17.456,14.831,-4.577,0.0,0.0,0
515,26.299,100702.0,0.09,0.027,-0.954,-50.0,-55.0,-10.0,-5.432,5.737,3.173,0.0,0.0,0
516,26.299,100707.0,0.075,0.096,-0.859,-50.0,-55.0,-10.0,-7.263,-12.817,5.126,0.0,0.0,0
517,26.299,100710.0,0.038,0.087,-0.951,-50.0,-55.0,-10.0,-5.187,-5.432,-5.187,0.0,0.0,0
518,26.299,100713.0,0.125,0.049,-0.88,-50.0,-55.0,-10.0,-4.394,-2.197,0.305,0.0,0.0,0
519,26.299,100707.0,0.1,0.1,-1.008,-50.0,-55.0,-10.0,0.488,-13.305,-2.441,0.0,0.0,0
520,26.299,100706.0,-0.033,0.147,-1.009,-50.0,-55.0,-10.0,-8.239,10.803,2.136,0.0,0.0,0
521,26.299,100713.0,0.103,-0.105,-1.152,-50.0,-55.0,-10.0,-14.77,-10.07,-22.644,0.0,0.0,0
522,26.299,100706.0,0.01,0.131,-0.961,-50.0,-55.0,-10.0,-3.784,19.165,-22.46,0.0,0.0,0
523,26.299,100711.0,0.084,0.017,-1.024,-50.0,-55.0,-10.0,-8.178,-8.361,-1.342,0.0,0.0,0
524,26.299,100712.0,0.018,0.091,-0.925,-50.0,-55.0,-10.0,10.07,-26.672,-13.427,0.0,0.0,0
525,26.299,100711.0,0.027,0.059,-0.958,-50.0,-55.0,-10.0,-8.972,-16.174,-3.234,0.0,0.0,0
526,26.299,100711.0,0.073,0.042,-0.983,-50.0,-55.0,-10.0,12.39,1.831,18.188,0.0,0.0,0
527,26.399,100711.0,-0.016,0.104,-0.992,-50.0,-55.0,-10.0,2.38,8.605,10.62,0.0,0.0,0
528,26.299,100706.0,0.081,0.052,-1.038,-50.0,-55.0,-10.0,-15.686,9.948,0.793,0.0,0.0,0
529,26.299,100711.0,0.096,0.017,-1.104,-50.0,-55.0,-10.0,0.61,0.488,8.178,0.0,0.0,0
530,26.399,100720.0,0.061,0.128,-0.936,-50.0,-55.0,-10.0,-18.249,26.245,-13.061,0.0,0.0,0
531,26.399,100714.0,0.098,0.011,-1.034,-50.0,-55.0,-10.0,-2.197,1.525,13.854,0.0,0.0,0
532,26.399,100714.0,0.023,0.128,-0.906,-50.0,-55.0,-10.0,0.793,8.422,-1.525,0.0,0.0,0
533,26.299,100709.0,0.054,0.068,-1.0,-50.0,-55.0,-10.0,-11.047,-2.746,-1.77,0.0,0.0,0
534,26.399,100713.0,0.051,0.117,-0.892,-50.0,-55.0,-10.0,7.629,-9.582,6.103,0.0,0.0,0
535,26.399,100706.0,0.011,0.106,-1.042,-50.0,-55.0,-10.0,-1.037,4.76,-1.953,0.0,0.0,0
536,26.399,100710.0,0.061,0.059,-0.952,-50.0,-55.0,-10.0,-9.948,-7.08,1.281,0.0,0.0,0
537,26.399,100707.0,0.069,0.022,-1.15,-50.0,-55.0,-10.0,0.976,-13.732,-7.751,0.0,0.0,0
538,26.399,100710.0,-0.006,0.129,-0.917,-50.0,-55.0,-10.0,-12.451,8.666,-1.892,0.0,0.0,0
539,26.399,100709.0,0.069,0.033,-0.972,-50.0,-55.0,-10.0,-3.112,-10.62,-19.897,0.0,0.0,0
540,26.399,100707.0,0.088,0.078,-0.89,-50.0,-55.0,-10.0,-11.413,3.906,-5.371,0.0,0.0,0
541,26.399,100705.0,0.036,0.065,-0.92,-50.0,-55.0,-10.0,-0.854,1.831,-3.356,0.0,0.0,0
542,26.399,100709.0,0.036,0.089,-0.946,-50.0,-55.0,-10.0,-6.225,-0.305,0.244,0.0,0.0,0
543,26.399,100707.0,0.068,0.062,-0.99,-50.0,-55.0,-10.0,-10.131,-7.873,18.432,0.0,0.0,0
544,26.399,100708.0,-0.014,0.099,-1.01,-50.0,-55.0,-10.0,7.69,14.221,0.183,0.0,0.0,0
545,26.399,100707.0,0.085,0.033,-1.02,-50.0,-55.0,-10.0,-19.165,-4.516,7.141,0.0,0.0,0
546,26.399,100708.0,0.018,0.071,-1.051,-50.0,-55.0,-10.0,22.949,-2.624,12.634,0.0,0.0,0
547,26.399,100711.0,0.043,0.036,-1.025,-50.0,-55.0,-10.0,-27.587,20.324,0.854,0.0,0.0,0
548,26.399,100702.0,0.044,0.052,-0.981,-50.0,-55.0,-10.0,-3.234,-2.807,-0.366,0.0,0.0,0
549,26.399,100708.0,0.021,0.085,-0.925,-50.0,-55.0,-10.0,-3.234,0.732,8.544,0.0,0.0,0
550,26.399,100708.0,0.01,0.1,-0.929,-50.0,-55.0,-10.0,-3.723,-14.709,5.187,0.0,0.0,0
551,26.399,100705.0,0.003,0.119,-0.982,-50.0,-55.0,-10.0,-15.075,-5.004,13.854,0.0,0.0,0
552,26.399,100707.0,0.041,0.069,-1.034,-50.0,-55.0,-10.0,13.244,-1.22,-2.014,0.0,0.0,0
553,26.399,100708.0,-0.025,0.138,-0.989,-50.0,-55.0,-10.0,-8.3,-3.906,-7.446,0.0,0.0,0
554,26.399,100707.0,0.059,-0.028,-1.253,-50.0,-55.0,-10.0,-19.653,-4.577,-12.329,0.0,0.0,0
555,26.399,100715.0,-0.003,0.171,-0.896,-50.0,-55.0,-10.0,15.075,-2.746,-2.136,0.0,0.0,0
556,26.399,100710.0,0.04,0.032,-1.014,-50.0,-55.0,-10.0,-15.441,-4.821,-11.596,0.0,0.0,0
557,26.399,100707.0,0.07,0.064,-0.87,-50.0,-55.0,-10.0,19.042,-3.662,-10.437,0.0,0.0,0
558,26.399,100703.0,0.072,0.082,-0.865,-50.0,-55.0,-10.0,-13.977,-2.075,3.479,0.0,0.0,0
559,26.399,100706.0,0.017,0.088,-0.976,-50.0,-55.0,-10.0,-9.399,9.216,3.662,0.0,0.0,0
560,26.399,100707.0,-0.043,0.116,-1.066,-50.0,-55.0,-10.0,5.371,-6.835,25.085,0.0,0.0,0
561,26.399,100703.0,0.019,0.053,-0.909,-50.0,-55.0,-10.0,-17.944,15.075,5.92,0.0,0.0,0
562,26.399,100708.0,0.083,-0.074,-1.082,-50.0,-55.0,-10.0,-10.742,-14.404,22.705,0.0,0.0,0
563,26.399,100706.0,0.08,-0.022,-1.065,-50.0,-55.0,-10.0,-24.23,12.207,-12.939,0.0,0.0,0
564,26.399,100709.0,0.021,0.099,-0.946,-50.0,-55.0,-10.0,2.868,2.685,2.502,0.0,0.0,0
565,26.399,100705.0,0.048,0.092,-0.951,-50.0,-55.0,-10.0,-13.488,-7.324,2.136,0.0,0.0,0
566,26.399,100715.0,0.047,0.041,-1.063,-50.0,-55.0,-10.0,-5.798,-7.751,-5.371,0.0,0.0,0
567,26.399,100712.0,-0.025,0.08,-1.074,-50.0,-55.0,-10.0,4.821,0.732,2.136,0.0,0.0,0
568,26.399,100711.0,0.079,0.094,-0.794,-50.0,-55.0,-10.0,22.949,-12.207,2.563,0.0,0.0,0
569,26.399,100707.0,0.102,0.103,-0.825,-50.0,-55.0,-10.0,-39.855,0.427,-6.896,0.0,0.0,0
570,26.399,100709.0,0.074,-0.005,-1.326,-50.0,-55.0,-10.0,22.155,-14.465,2.319,0.0,0.0,0
571,26.399,100710.0,0.02,0.036,-0.968,-50.0,-55.0,-10.0,-10.07,5.859,-22.155,0.0,0.0,0
572,26.399,100713.0,-0.025,0.11,-0.952,-50.0,-55.0,-10.0,-23.864,-9.338,-2.136,0.0,0.0,0
573,26.399,100717.0,0.054,0.103,-1.001,-50.0,-55.0,-10.0,14.282,4.455,-2.197,0.0,0.0,0
574,26.399,100707.0,0.092,0.076,-0.813,-50.0,-55.0,-10.0,-10.07,-8.178,-0.366,0.0,0.0,0
575,26.399,100702.0,0.0,0.04,-1.14,-50.0,-55.0,-10.0,-1.037,-3.479,14.465,0.0,0.0,0
576,26.399,100702.0,0.159,0.036,-0.928,-50.0,-55.0,-10.0,16.723,13.671,3.173,0.0,0.0,0
577,26.399,100703.0,0.129,0.078,-1.202,-50.0,-55.0,-10.0,-9.643,7.995,7.995,0.0,0.0,0
578,26.399,100703.0,0.115,0.051,-0.738,-50.0,-55.0,-10.0,-3.784,-12.207,-3.173,0.0,0.0,0
579,26.399,100707.0,0.031,-0.001,-0.813,-50.0,-55.0,-10.0,-4.516,0.793,-15.136,0.0,0.0,0
580,26.399,100709.0,0.101,0.12,-1.023,-50.0,-55.0,-10.0,-6.225,-6.958,7.202,0.0,0.0,0
581,26.399,100714.0,0.116,0.048,-1.035,-50.0,-55.0,-10.0,2.075,1.953,1.342,0.0,0.0,0
582,26.399,100710.0,0.059,0.079,-0.658,-50.0,-55.0,-10.0,-9.643,-7.08,-2.014,0.0,0.0,0
583,26.399,100712.0,-0.037,0.083,-0.774,-50.0,-55.0,-10.0,-4.028,8.728,-0.61,0.0,0.0,0
584,26.399,100705.0,0.121,0.13,-0.994,-50.0,-55.0,-10.0,10.07,-13.366,11.535,0.0,0.0,0
585,26.399,100705.0,0.161,0.176,-1.085,-50.0,-55.0,-10.0,-16.113,24.963,-9.399,0.0,0.0,0
586,26.399,100708.0,0.089,0.098,-1.026,-50.0,-55.0,-10.0,20.935,-7.751,9.155,0.0,0.0,0
587,26.399,100704.0,0.115,0.012,-1.117,-50.0,-55.0,-10.0,-35.888,5.187,-12.512,0.0,0.0,0
588,26.399,100704.0,0.069,0.047,-1.185,-50.0,-55.0,-10.0,6.103,7.507,3.051,0.0,0.0,0
589,26.399,100707.0,-0.054,0.095,-0.673,-50.0,-55.0,-10.0,4.211,-13.366,-1.159,0.0,0.0,0
590,26.399,100710.0,-0.078,0.029,-1.232,-50.0,-55.0,-10.0,-24.475,-13.366,18.066,0.0,0.0,0
591,26.399,100711.0,0.023,0.049,-1.011,-50.0,-55.0,-10.0,3.051,5.554,19.897,0.0,0.0,0
592,26.399,100707.0,-0.21,0.067,-1.036,-50.0,-55.0,-10.0,14.953,-2.258,20.996,0.0,0.0,0
593,26.399,100709.0,-0.062,0.014,-0.73,-50.0,-55.0,-10.0,-27.282,-11.23,-0.976,0.0,0.0,0
594,26.399,100712.0,-0.035,0.131,-1.154,-50.0,-55.0,-10.0,4.882,-23.01,29.602,0.0,0.0,0
595,26.399,100713.0,0.304,-0.022,-1.116,-50.0,-55.0,-10.0,-25.329,32.653,8.117,0.0,0.0,0
596,26.399,100711.0,0.186,0.129,-0.813,-50.0,-55.0,-10.0,-2.502,-0.854,6.225,0.0,0.0,0
597,26.399,100710.0,0.092,0.061,-0.642,-50.0,-55.0,-10.0,-20.751,3.54,16.052,0.0,0.0,0
598,26.399,100708.0,-0.164,0.084,-1.146,-50.0,-55.0,-10.0,2.99,-18.066,20.324,0.0,0.0,0
599,26.399,100712.0,0.139,0.076,-1.047,-50.0,-55.0,-10.0,-0.793,7.568,18.493,0.0,0.0,0
600,26.399,100704.0,0.249,0.093,-0.745,-50.0,-55.0,-10.0,-4.821,6.286,23.254,0.0,0.0,0
601,0.0,0.0,0.0,0.0,0.0,0.0,0.0,0.0,0.0,0.0,0.0,0.0,0.0,0
