No,Temperature,Pressure,accelX,accelY,accelZ,magX,magY,magZ,gyroX,gyroY,gyroZ,gps_latitude,gps_longtitude,gps_time,highte,accel
1,27.1,100521.0,-0.11,0.063,-0.992,-50.0,-55.0,-10.0,-8.789,0.488,-0.122,0.0,0.0,0,70.05336236378922,0.5000665
2,27.1,100522.0,-0.113,0.052,-0.986,-50.0,-55.0,-10.0,-9.643,0.976,-0.427,0.0,0.0,0,69.96581754558437,0.49383449999999995
3,27.2,100524.0,-0.124,0.04,-1.001,-50.0,-55.0,-10.0,-9.216,-0.122,0.305,0.0,0.0,0,69.81397522566111,0.5094884999999999
4,27.2,100519.0,-0.112,0.037,-0.998,-50.0,-55.0,-10.0,-7.08,-1.586,0.061,0.0,0.0,0,70.25184510335004,0.5049585
5,27.2,100514.0,-0.112,0.039,-0.995,-50.0,-55.0,-10.0,-7.263,-2.197,-0.183,0.0,0.0,0,70.68974090538691,0.5020450000000001
6,27.2,100527.0,-0.109,0.033,-0.993,-50.0,-55.0,-10.0,-8.056,-2.441,-0.305,0.0,0.0,0,69.55126574156675,0.4995095
7,27.2,100515.0,-0.111,0.03,-0.988,-50.0,-55.0,-10.0,-5.371,-0.976,0.122,0.0,0.0,0,70.60215967089668,0.4946825
8,27.2,100517.0,-0.114,0.03,-0.992,-50.0,-55.0,-10.0,-4.943,-0.915,0.061,0.0,0.0,0,70.42700031308667,0.49898
9,27.2,100516.0,-0.114,0.029,-0.991,-50.0,-55.0,-10.0,-4.699,-0.671,0.244,0.0,0.0,0,70.51457947347352,0.497959
10,27.2,100521.0,-0.11,0.034,-0.991,-50.0,-55.0,-10.0,-4.638,-0.976,0.244,0.0,0.0,0,70.07669404151237,0.4976685
11,27.2,100525.0,-0.112,0.03,-0.992,-50.0,-55.0,-10.0,-4.638,-0.976,0.122,0.0,0.0,0,69.72640436079514,0.498754
12,27.2,100519.0,-0.114,0.03,-0.995,-50.0,-55.0,-10.0,-4.577,-0.793,0.366,0.0,0.0,0,70.25184510335004,0.5019605
13,27.2,100523.0,-0.111,0.028,-0.998,-50.0,-55.0,-10.0,-4.638,-0.854,0.427,0.0,0.0,0,69.90154712738897,0.5045545
14,27.2,100524.0,-0.111,0.027,-0.993,-50.0,-55.0,-10.0,-4.516,-1.037,0.61,0.0,0.0,0,69.81397522566111,0.4995495
15,27.2,100526.0,-0.112,0.03,-0.989,-50.0,-55.0,-10.0,-4.76,-0.915,0.183,0.0,0.0,0,69.63883453277053,0.4957825
16,27.2,100518.0,-0.108,0.026,-0.992,-50.0,-55.0,-10.0,-4.638,-0.976,0.427,0.0,0.0,0,70.3394221897156,0.498202
17,27.2,100521.0,-0.112,0.028,-0.99,-50.0,-55.0,-10.0,-4.638,-0.732,0.183,0.0,0.0,0,70.07669404151237,0.496714
18,27.2,100522.0,-0.112,0.022,-0.984,-50.0,-55.0,-10.0,-5.31,-0.915,0.244,0.0,0.0,0,69.9891200659992,0.490642
19,27.2,100524.0,-0.114,0.024,-0.988,-50.0,-55.0,-10.0,-5.981,-0.793,-0.244,0.0,0.0,0,69.81397522566111,0.494858
20,27.2,100524.0,-0.111,0.022,-0.991,-50.0,-55.0,-10.0,-7.019,0.366,-0.854,0.0,0.0,0,69.81397522566111,0.49744299999999997
21,27.2,100529.0,-0.116,0.021,-0.988,-50.0,-55.0,-10.0,-5.249,-1.403,0.061,0.0,0.0,0,69.37613126950885,0.49502050000000003
22,27.2,100519.0,-0.113,0.02,-0.991,-50.0,-55.0,-10.0,-5.249,-1.098,0.366,0.0,0.0,0,70.25184510335004,0.497625
23,27.2,100518.0,-0.113,0.019,-0.995,-50.0,-55.0,-10.0,-5.187,-1.159,0.244,0.0,0.0,0,70.3394221897156,0.5015775
24,27.2,100513.0,-0.113,0.018,-0.991,-50.0,-55.0,-10.0,-4.821,-1.098,0.244,0.0,0.0,0,70.77732317696474,0.497587
25,27.2,100521.0,-0.116,0.021,-0.992,-50.0,-55.0,-10.0,-4.821,-1.22,-0.061,0.0,0.0,0,70.07669404151237,0.4989805
26,27.2,100516.0,-0.115,0.018,-1.0,-50.0,-55.0,-10.0,-4.699,-1.037,0.122,0.0,0.0,0,70.51457947347352,0.5067745
27,27.2,100523.0,-0.113,0.016,-0.992,-50.0,-55.0,-10.0,-4.76,-0.915,0.305,0.0,0.0,0,69.90154712738897,0.49854449999999995
28,27.2,100518.0,-0.116,0.019,-0.988,-50.0,-55.0,-10.0,-10.009,1.77,-0.244,0.0,0.0,0,70.3394221897156,0.4949805
29,27.2,100520.0,-0.114,0.023,-0.96,-50.0,-55.0,-10.0,-13.122,4.15,-0.671,0.0,0.0,0,70.16426905394897,0.4675625
30,27.2,100518.0,-0.133,-0.018,-1.013,-50.0,-55.0,-10.0,-11.23,1.403,-0.366,0.0,0.0,0,70.3394221897156,0.522091
31,27.2,100519.0,-0.129,-0.014,-0.997,-50.0,-55.0,-10.0,-14.648,3.479,-0.122,0.0,0.0,0,70.25184510335004,0.5054230000000001
32,27.2,100525.0,-0.131,-0.018,-0.987,-50.0,-55.0,-10.0,-3.112,-2.502,0.061,0.0,0.0,0,69.72640436079514,0.49582699999999996
33,27.2,100519.0,-0.122,-0.01,-1.005,-50.0,-55.0,-10.0,4.394,-7.69,0.549,0.0,0.0,0,70.25184510335004,0.5125044999999999
34,27.2,100523.0,-0.123,0.007,-1.02,-50.0,-55.0,-10.0,27.465,-20.019,-0.244,0.0,0.0,0,69.90154712738897,0.527789
35,27.2,100519.0,-0.116,0.046,-0.948,-50.0,-55.0,-10.0,21.057,-11.474,-14.77,0.0,0.0,0,70.25184510335004,0.457138
36,27.2,100523.0,-0.033,0.021,-1.05,-50.0,-55.0,-10.0,17.822,9.521,-10.559,0.0,0.0,0,69.90154712738897,0.552015
37,27.299,100522.0,-0.095,0.125,-0.947,-50.0,-55.0,-10.0,-2.319,-1.464,-4.089,0.0,0.0,0,70.01218956120991,0.4607294999999999
38,27.299,100524.0,-0.175,0.017,-1.068,-50.0,-55.0,-10.0,-8.911,5.92,-20.141,0.0,0.0,0,69.8369869904267,0.585769
39,27.299,100534.0,-0.021,0.1,-0.941,-50.0,-55.0,-10.0,-7.69,13.427,-34.667,0.0,0.0,0,68.96103636509586,0.44796099999999994
40,27.2,100527.0,-0.081,0.089,-0.98,-50.0,-55.0,-10.0,-16.296,-12.695,0.61,0.0,0.0,0,69.55126574156675,0.48744099999999996
41,27.299,100529.0,-0.212,0.253,-0.915,-50.0,-55.0,-10.0,26.0,-21.362,-30.395,0.0,0.0,0,69.39899871414238,0.47308900000000004
42,27.2,100526.0,0.02,0.118,-0.918,-50.0,-55.0,-10.0,-3.54,17.028,0.244,0.0,0.0,0,69.63883453277053,0.428524
43,27.299,100526.0,-0.072,0.336,-0.925,-50.0,-55.0,-10.0,-15.625,23.376,0.122,0.0,0.0,0,69.66178856845805,0.4868525
44,27.299,100531.0,-0.141,0.121,-1.045,-50.0,-55.0,-10.0,20.874,1.403,-14.465,0.0,0.0,0,69.2238106634096,0.5632734999999999
45,27.2,100533.0,-0.097,0.183,-0.968,-50.0,-55.0,-10.0,21.728,15.502,-20.385,0.0,0.0,0,69.02587476618628,0.489961
46,27.2,100527.0,-0.067,0.174,-0.944,-50.0,-55.0,-10.0,7.202,8.728,-8.3,0.0,0.0,0,69.55126574156675,0.4629505
47,27.2,100524.0,-0.142,0.203,-0.917,-50.0,-55.0,-10.0,-4.882,-34.667,-15.686,0.0,0.0,0,69.81397522566111,0.45113100000000006
48,27.2,100528.0,-0.129,0.289,-1.257,-50.0,-55.0,-10.0,-24.291,-49.621,-13.549,0.0,0.0,0,69.46369798715304,0.8401055
49,27.2,100528.0,-0.077,0.159,-1.061,-50.0,-55.0,-10.0,18.92,2.136,-8.544,0.0,0.0,0,69.46369798715304,0.5784655
50,27.2,100526.0,-0.049,0.253,-0.949,-50.0,-55.0,-10.0,-1.77,-17.211,-16.601,0.0,0.0,0,69.63883453277053,0.4835054999999999
51,27.2,100527.0,-0.053,0.233,-1.013,-50.0,-55.0,-10.0,8.178,14.099,-25.39,0.0,0.0,0,69.55126574156675,0.5416335
52,27.2,100528.0,-0.063,0.208,-1.002,-50.0,-55.0,-10.0,0.549,7.69,-6.347,0.0,0.0,0,69.46369798715304,0.5256185
53,27.2,100517.0,-0.045,0.202,-1.082,-50.0,-55.0,-10.0,-0.244,-35.888,-7.08,0.0,0.0,0,70.42700031308667,0.6067765
54,27.2,100518.0,0.038,0.203,-1.023,-50.0,-55.0,-10.0,-22.705,4.333,26.55,0.0,0.0,0,70.3394221897156,0.5445909999999999
55,27.2,100519.0,0.01,0.232,-1.043,-50.0,-55.0,-10.0,-6.469,-14.953,5.31,0.0,0.0,0,70.25184510335004,0.5708865
56,27.2,100521.0,0.065,0.198,-1.029,-50.0,-55.0,-10.0,-26.733,11.962,43.884,0.0,0.0,0,70.07669404151237,0.5511349999999999
57,27.2,100519.0,-0.035,0.195,-0.973,-50.0,-55.0,-10.0,-36.682,25.817,36.926,0.0,0.0,0,70.25184510335004,0.49298949999999997
58,27.2,100524.0,-0.065,0.114,-0.958,-50.0,-55.0,-10.0,-22.033,12.023,34.912,0.0,0.0,0,69.81397522566111,0.4674925
59,27.2,100526.0,-0.059,0.084,-0.955,-50.0,-55.0,-10.0,-12.023,-12.512,34.362,0.0,0.0,0,69.63883453277053,0.461281
60,27.2,100521.0,-0.093,0.09,-1.072,-50.0,-55.0,-10.0,-2.868,-38.452,4.333,0.0,0.0,0,70.07669404151237,0.5829665
61,27.2,100518.0,-0.064,0.122,-1.136,-50.0,-55.0,-10.0,6.652,-0.122,-22.766,0.0,0.0,0,70.3394221897156,0.6547379999999999
62,27.2,100516.0,-0.114,0.123,-1.175,-50.0,-55.0,-10.0,-2.685,9.216,-13.366,0.0,0.0,0,70.51457947347352,0.7043750000000001
63,27.2,100515.0,-0.159,0.088,-1.14,-50.0,-55.0,-10.0,-26.184,45.41,-2.441,0.0,0.0,0,70.60215967089668,0.6663125
64,27.2,100516.0,-0.201,0.062,-1.03,-50.0,-55.0,-10.0,-20.874,0.488,-16.54,0.0,0.0,0,70.51457947347352,0.5525725
65,27.2,100518.0,-0.225,-0.012,-0.925,-50.0,-55.0,-10.0,-24.047,36.01,-15.502,0.0,0.0,0,70.3394221897156,0.453197
66,27.2,100514.0,-0.245,0.03,-0.888,-50.0,-55.0,-10.0,-8.666,26.0,-21.362,0.0,0.0,0,70.68974090538691,0.4247345
67,27.2,100518.0,-0.251,0.0,-0.847,-50.0,-55.0,-10.0,-32.958,41.564,10.864,0.0,0.0,0,70.3394221897156,0.39020499999999997
68,27.2,100512.0,-0.353,-0.085,-0.862,-50.0,-55.0,-10.0,-31.005,47.668,34.301,0.0,0.0,0,70.86490648566097,0.43743899999999997
69,27.2,100519.0,-0.505,-0.174,-0.831,-50.0,-55.0,-10.0,-12.573,-20.874,-10.62,0.0,0.0,0,70.25184510335004,0.487931
70,27.2,100518.0,-0.435,-0.194,-0.991,-50.0,-55.0,-10.0,67.199,-50.476,-7.934,0.0,0.0,0,70.3394221897156,0.604471
71,27.2,100513.0,-0.322,0.076,-0.87,-50.0,-55.0,-10.0,0.244,46.264,-60.058,0.0,0.0,0,70.77732317696474,0.43318
72,27.2,100518.0,-0.321,0.124,-0.981,-50.0,-55.0,-10.0,-48.522,15.441,-15.258,0.0,0.0,0,70.3394221897156,0.540389
73,27.2,100517.0,-0.352,0.06,-1.092,-50.0,-55.0,-10.0,-20.996,25.085,9.155,0.0,0.0,0,70.42700031308667,0.6599840000000001
74,27.2,100514.0,-0.276,0.06,-1.237,-50.0,-55.0,-10.0,18.249,13.854,17.15,0.0,0.0,0,70.68974090538691,0.8049725000000002
75,27.2,100516.0,-0.346,0.212,-1.24,-50.0,-55.0,-10.0,28.93,13.122,5.676,0.0,0.0,0,70.51457947347352,0.85113
76,27.2,100521.0,-0.331,0.063,-1.156,-50.0,-55.0,-10.0,-0.915,11.901,18.92,0.0,0.0,0,70.07669404151237,0.7249329999999998
77,27.2,100514.0,-0.36,0.123,-1.105,-50.0,-55.0,-10.0,-10.437,-3.54,17.944,0.0,0.0,0,70.68974090538691,0.682877
78,27.2,100516.0,-0.35,0.126,-1.074,-50.0,-55.0,-10.0,-31.372,8.911,18.371,0.0,0.0,0,70.51457947347352,0.6459260000000001
79,27.2,100512.0,-0.393,0.01,-0.952,-50.0,-55.0,-10.0,-28.015,-13.427,15.136,0.0,0.0,0,70.86490648566097,0.5304264999999999
80,27.2,100511.0,-0.273,0.003,-0.93,-50.0,-55.0,-10.0,-1.525,-6.896,23.925,0.0,0.0,0,70.95249083147554,0.46971900000000005
81,27.2,100504.0,-0.211,-0.053,-0.874,-50.0,-55.0,-10.0,-7.873,-8.85,9.277,0.0,0.0,0,71.5656102938317,0.405603
82,27.2,100502.0,-0.194,-0.055,-0.864,-50.0,-55.0,-10.0,-1.831,-7.263,-3.906,0.0,0.0,0,71.74079661855619,0.39357849999999994
83,27.2,100501.0,-0.217,-0.025,-0.863,-50.0,-55.0,-10.0,3.906,-9.765,-18.798,0.0,0.0,0,71.82839133694998,0.3962415
84,27.2,100497.0,-0.208,-0.012,-0.753,-50.0,-55.0,-10.0,-21.057,-10.559,-9.216,0.0,0.0,0,72.17878058453047,0.3052085
85,27.2,100501.0,-0.246,0.005,-0.695,-50.0,-55.0,-10.0,-20.874,-7.568,-4.638,0.0,0.0,0,71.82839133694998,0.27178299999999994
86,27.2,100500.0,-0.323,-0.07,-0.758,-50.0,-55.0,-10.0,7.507,-4.211,15.014,0.0,0.0,0,71.91598709271865,0.3418965
87,27.2,100503.0,-0.411,-0.076,-0.854,-50.0,-55.0,-10.0,7.202,-5.737,-1.342,0.0,0.0,0,71.65320293752703,0.4520065
88,27.2,100506.0,-0.359,-0.037,-0.771,-50.0,-55.0,-10.0,-31.005,-11.474,-4.028,0.0,0.0,0,71.39042811836052,0.3623455
89,27.2,100503.0,-0.338,-0.049,-0.833,-50.0,-55.0,-10.0,-3.54,-9.826,28.442,0.0,0.0,0,71.65320293752703,0.405267
90,27.2,100500.0,-0.358,-0.084,-0.881,-50.0,-55.0,-10.0,-12.573,0.122,9.033,0.0,0.0,0,71.91598709271865,0.4556905
91,27.2,100507.0,-0.333,-0.126,-0.825,-50.0,-55.0,-10.0,-11.718,5.187,4.699,0.0,0.0,0,71.30283858654361,0.40369499999999997
92,27.2,100511.0,-0.355,-0.076,-0.96,-50.0,-55.0,-10.0,10.864,-6.469,0.793,0.0,0.0,0,70.95249083147554,0.5267005
93,27.2,100504.0,-0.342,-0.117,-0.962,-50.0,-55.0,-10.0,-16.418,6.408,4.76,0.0,0.0,0,71.5656102938317,0.5280484999999999
94,27.2,100509.0,-0.365,-0.173,-0.891,-50.0,-55.0,-10.0,-16.174,-7.812,4.089,0.0,0.0,0,71.12766263461378,0.47851750000000004
95,27.2,100501.0,-0.312,-0.186,-0.934,-50.0,-55.0,-10.0,6.713,10.925,16.723,0.0,0.0,0,71.82839133694998,0.502148
96,27.2,100499.0,-0.29,-0.146,-0.931,-50.0,-55.0,-10.0,-23.01,-3.479,-1.586,0.0,0.0,0,72.00358388588272,0.48608850000000003
97,27.2,100503.0,-0.349,-0.202,-0.841,-50.0,-55.0,-10.0,-20.202,-5.737,-3.112,0.0,0.0,0,71.65320293752703,0.43494299999999997
98,27.2,100503.0,-0.352,-0.133,-0.898,-50.0,-55.0,-10.0,19.897,14.831,3.051,0.0,0.0,0,71.65320293752703,0.4739985
99,27.2,100500.0,-0.347,-0.169,-0.807,-50.0,-55.0,-10.0,-27.099,-48.583,-31.982,0.0,0.0,0,71.91598709271865,0.4001095
100,27.2,100509.0,-0.26,-0.237,-0.46,-50.0,-55.0,-10.0,49.011,9.948,7.934,0.0,0.0,0,71.12766263461378,0.16768450000000001
101,27.2,100502.0,-0.235,-0.139,-0.067,-50.0,-55.0,-10.0,26.0,81.848,11.901,0.0,0.0,0,71.74079661855619,0.039517500000000004
102,27.2,100507.0,-0.089,-0.016,-0.14,-50.0,-55.0,-10.0,30.334,25.39,-27.893,0.0,0.0,0,71.30283858654361,0.013888500000000002
103,27.2,100499.0,-0.04,0.078,-0.2,-50.0,-55.0,-10.0,-67.077,-59.387,-59.326,0.0,0.0,0,72.00358388588272,0.023842000000000002
104,27.2,100503.0,0.032,0.011,-0.087,-50.0,-55.0,-10.0,-54.199,10.07,3.845,0.0,0.0,0,71.65320293752703,0.004357
105,27.2,100495.0,0.143,0.138,-0.343,-50.0,-55.0,-10.0,9.582,-18.188,41.076,0.0,0.0,0,72.35398143306766,0.078571
106,27.2,100505.0,0.306,0.256,-0.724,-50.0,-55.0,-10.0,-28.442,-122.192,26.611,0.0,0.0,0,71.4780186874497,0.341674
107,27.2,100507.0,0.581,0.47,-1.153,-50.0,-55.0,-10.0,25.695,-10.925,36.01,0.0,0.0,0,71.30283858654361,0.943935
108,27.2,100518.0,0.212,-0.005,-2.689,-50.0,-55.0,-10.0,94.421,-80.993,18.737,0.0,0.0,0,70.3394221897156,3.637845
109,27.2,100515.0,-0.26,0.077,-2.832,-50.0,-55.0,-10.0,2.807,16.357,4.333,0.0,0.0,0,70.60215967089668,4.0468765
110,27.2,100524.0,-0.026,0.121,-1.328,-50.0,-55.0,-10.0,-33.203,84.411,32.592,0.0,0.0,0,69.81397522566111,0.8894505000000001
111,27.2,100518.0,0.095,0.326,-1.269,-50.0,-55.0,-10.0,50.231,-144.531,-39.123,0.0,0.0,0,70.3394221897156,0.8628309999999999
112,27.2,100524.0,-0.208,0.135,-1.166,-50.0,-55.0,-10.0,31.494,68.847,-64.758,0.0,0.0,0,69.81397522566111,0.7105224999999998
113,27.2,100519.0,-0.083,0.112,-0.98,-50.0,-55.0,-10.0,-12.695,19.104,23.01,0.0,0.0,0,70.25184510335004,0.4899165
114,27.2,100525.0,-0.001,0.193,-0.836,-50.0,-55.0,-10.0,-25.756,8.483,4.333,0.0,0.0,0,69.72640436079514,0.368073
115,27.2,100519.0,-0.009,0.156,-0.952,-50.0,-55.0,-10.0,19.958,26.916,5.737,0.0,0.0,0,70.25184510335004,0.46536049999999995
116,27.2,100525.0,0.084,0.234,-1.059,-50.0,-55.0,-10.0,-8.178,-17.822,35.522,0.0,0.0,0,69.72640436079514,0.5916465
117,27.2,100519.0,0.084,0.101,-0.921,-50.0,-55.0,-10.0,-22.521,11.047,15.319,0.0,0.0,0,70.25184510335004,0.432749
118,27.2,100510.0,-0.001,0.081,-1.043,-50.0,-55.0,-10.0,20.446,-6.652,-5.371,0.0,0.0,0,71.04007621445983,0.5472054999999999
119,27.2,100519.0,0.005,0.178,-1.001,-50.0,-55.0,-10.0,3.295,16.357,-10.986,0.0,0.0,0,70.25184510335004,0.5168549999999998
120,27.2,100512.0,-0.029,0.168,-1.109,-50.0,-55.0,-10.0,-2.929,-20.935,-2.502,0.0,0.0,0,70.86490648566097,0.629473
121,27.2,100515.0,-0.117,0.119,-1.576,-50.0,-55.0,-10.0,-9.033,0.732,-16.845,0.0,0.0,0,70.60215967089668,1.255813
122,27.2,100508.0,-0.118,0.1,-1.728,-50.0,-55.0,-10.0,-71.35,50.964,-9.033,0.0,0.0,0,71.21525009196822,1.504954
123,27.2,100515.0,-0.245,-0.035,-1.752,-50.0,-55.0,-10.0,-62.194,46.142,-40.039,0.0,0.0,0,70.60215967089668,1.565377
124,27.2,100515.0,-0.2,-0.059,-1.72,-50.0,-55.0,-10.0,-60.18,64.392,-13.061,0.0,0.0,0,70.60215967089668,1.5009404999999998
125,27.2,100519.0,-0.159,-0.166,-1.458,-50.0,-55.0,-10.0,-113.586,21.423,-41.992,0.0,0.0,0,70.25184510335004,1.0893004999999998
126,27.2,100515.0,-0.044,-0.21,-1.148,-50.0,-55.0,-10.0,-58.105,10.314,-45.043,0.0,0.0,0,70.60215967089668,0.6819699999999999
127,27.2,100512.0,-0.045,-0.092,-0.529,-50.0,-55.0,-10.0,-3.845,19.958,-22.338,0.0,0.0,0,70.86490648566097,0.145165
128,27.2,100503.0,-0.064,-0.011,-0.407,-50.0,-55.0,-10.0,70.739,3.845,-6.896,0.0,0.0,0,71.65320293752703,0.084933
129,27.2,100507.0,-0.266,-0.073,-0.537,-50.0,-55.0,-10.0,69.396,12.084,1.708,0.0,0.0,0,71.30283858654361,0.18222700000000003
130,27.2,100503.0,-0.211,-0.051,-0.704,-50.0,-55.0,-10.0,58.166,-52.001,35.522,0.0,0.0,0,71.65320293752703,0.27136899999999997
131,27.2,100504.0,-0.163,0.127,-0.587,-50.0,-55.0,-10.0,41.809,48.217,37.719,0.0,0.0,0,71.5656102938317,0.1936335
132,27.2,100504.0,-0.1,0.105,-0.609,-50.0,-55.0,-10.0,-34.545,-18.554,27.038,0.0,0.0,0,71.5656102938317,0.195953
133,27.2,100504.0,-0.218,-0.006,-0.593,-50.0,-55.0,-10.0,-28.564,-32.226,3.601,0.0,0.0,0,71.5656102938317,0.1996045
134,27.2,100509.0,-0.173,0.079,-0.665,-50.0,-55.0,-10.0,13.793,41.931,54.931,0.0,0.0,0,71.12766263461378,0.2391975
135,27.2,100509.0,-0.273,0.032,-0.729,-50.0,-55.0,-10.0,-24.169,-30.151,5.493,0.0,0.0,0,71.12766263461378,0.30349699999999996
136,27.2,100502.0,-0.308,-0.034,-0.76,-50.0,-55.0,-10.0,-23.193,4.333,13.854,0.0,0.0,0,71.74079661855619,0.33681
137,27.2,100499.0,-0.322,-0.043,-0.804,-50.0,-55.0,-10.0,-11.23,-3.601,19.226,0.0,0.0,0,72.00358388588272,0.37597450000000004
138,27.2,100504.0,-0.302,-0.021,-0.937,-50.0,-55.0,-10.0,-2.746,-21.118,16.357,0.0,0.0,0,71.5656102938317,0.48480700000000004
139,27.2,100502.0,-0.271,-0.118,-0.955,-50.0,-55.0,-10.0,-2.868,21.301,15.258,0.0,0.0,0,71.74079661855619,0.499695
140,27.2,100507.0,-0.203,-0.058,-0.893,-50.0,-55.0,-10.0,-4.943,2.624,13.671,0.0,0.0,0,71.30283858654361,0.421011
141,27.2,100501.0,-0.31,-0.083,-0.953,-50.0,-55.0,-10.0,19.836,-0.732,-1.708,0.0,0.0,0,71.82839133694998,0.505599
142,27.2,100496.0,-0.288,-0.009,-0.988,-50.0,-55.0,-10.0,-5.676,-7.019,-6.958,0.0,0.0,0,72.2663804900552,0.5295845
143,27.2,100510.0,-0.256,-0.065,-0.962,-50.0,-55.0,-10.0,-15.319,-9.765,-7.568,0.0,0.0,0,71.04007621445983,0.49760249999999995
144,27.2,100510.0,-0.267,-0.059,-0.99,-50.0,-55.0,-10.0,6.408,0.244,-9.033,0.0,0.0,0,71.04007621445983,0.527435
145,27.2,100511.0,-0.264,-0.036,-0.975,-50.0,-55.0,-10.0,-2.197,11.291,-9.338,0.0,0.0,0,70.95249083147554,0.5108085
146,27.2,100508.0,-0.277,-0.019,-0.972,-50.0,-55.0,-10.0,-3.662,0.549,-7.629,0.0,0.0,0,71.21525009196822,0.510937
147,27.2,100510.0,-0.301,-0.003,-0.971,-50.0,-55.0,-10.0,-8.544,1.586,-22.888,0.0,0.0,0,71.04007621445983,0.5167255
148,27.2,100504.0,-0.302,-0.069,-0.944,-50.0,-55.0,-10.0,-34.057,5.371,-19.165,0.0,0.0,0,71.5656102938317,0.49355049999999995
149,27.2,100497.0,-0.329,-0.038,-0.855,-50.0,-55.0,-10.0,-30.212,-16.418,-37.353,0.0,0.0,0,72.17878058453047,0.420355
150,27.2,100508.0,-0.378,-0.248,-0.369,-50.0,-55.0,-10.0,27.282,34.851,-35.034,0.0,0.0,0,71.21525009196822,0.1702745
151,27.2,100507.0,-0.269,-0.033,0.041,-50.0,-55.0,-10.0,-10.559,46.997,-101.806,0.0,0.0,0,71.30283858654361,0.03756550000000001
152,27.2,100504.0,-0.323,-0.058,-0.058,-50.0,-55.0,-10.0,36.01,-31.188,-209.045,0.0,0.0,0,71.5656102938317,0.05552850000000001
153,27.2,100495.0,0.27,-0.057,0.086,-50.0,-55.0,-10.0,-76.11,-24.047,-129.821,0.0,0.0,0,72.35398143306766,0.041772500000000004
154,27.1,100497.0,0.174,0.055,-0.328,-50.0,-55.0,-10.0,-36.987,23.315,-16.662,0.0,0.0,0,72.15474902781847,0.0704425
155,27.2,100501.0,0.28,0.013,-0.286,-50.0,-55.0,-10.0,39.978,-53.527,57.617,0.0,0.0,0,71.82839133694998,0.08018249999999999
156,27.2,100501.0,0.639,0.145,-0.541,-50.0,-55.0,-10.0,17.272,-56.457,89.05,0.0,0.0,0,71.82839133694998,0.3610135
157,27.1,100504.0,1.135,0.586,-1.552,-50.0,-55.0,-10.0,-59.753,-152.404,74.951,0.0,0.0,0,71.54178288903935,2.0201625
158,27.2,100517.0,0.487,0.839,-2.718,-50.0,-55.0,-10.0,335.144,-102.111,16.845,0.0,0.0,0,70.42700031308667,4.164307
159,27.2,100522.0,-1.186,-0.23,-1.371,-50.0,-55.0,-10.0,-72.692,186.34,-15.686,0.0,0.0,0,69.9891200659992,1.6695685
160,27.2,100527.0,0.049,0.074,-0.766,-50.0,-55.0,-10.0,37.231,-76.538,40.344,0.0,0.0,0,69.55126574156675,0.29731650000000004
161,27.2,100529.0,0.046,-0.006,-0.759,-50.0,-55.0,-10.0,-9.155,-25.329,-27.587,0.0,0.0,0,69.37613126950885,0.28911650000000005
162,27.2,100519.0,-0.178,0.104,-1.057,-50.0,-55.0,-10.0,-13.732,1.953,-0.305,0.0,0.0,0,70.25184510335004,0.5798745
163,27.2,100527.0,-0.059,0.082,-0.941,-50.0,-55.0,-10.0,-32.47,-6.713,-10.253,0.0,0.0,0,69.55126574156675,0.44784299999999994
164,27.1,100519.0,-0.043,0.046,-0.98,-50.0,-55.0,-10.0,-33.874,5.432,-7.995,0.0,0.0,0,70.22845510997453,0.48218249999999996
165,27.1,100518.0,-0.063,0.003,-0.992,-50.0,-55.0,-10.0,-9.155,7.141,-0.244,0.0,0.0,0,70.31600303799604,0.494021
166,27.1,100517.0,-0.051,-0.02,-1.013,-50.0,-55.0,-10.0,-3.295,-0.061,-4.577,0.0,0.0,0,70.4035520026778,0.514585
167,27.1,100520.0,-0.067,-0.01,-0.995,-50.0,-55.0,-10.0,1.525,0.549,2.258,0.0,0.0,0,70.14090821857226,0.497307
168,27.1,100521.0,-0.083,-0.003,-1.026,-50.0,-55.0,-10.0,3.906,-6.53,1.281,0.0,0.0,0,70.05336236378922,0.529787
169,27.1,100523.0,-0.018,0.016,-1.009,-50.0,-55.0,-10.0,21.789,2.929,7.568,0.0,0.0,0,69.8782737639372,0.5093304999999999
170,27.1,100525.0,-0.057,0.076,-1.02,-50.0,-55.0,-10.0,25.146,-4.211,8.178,0.0,0.0,0,69.70318931023388,0.5247125
171,27.1,100530.0,-0.136,0.063,-1.045,-50.0,-55.0,-10.0,16.296,5.065,10.559,0.0,0.0,0,69.26549631423758,0.5572449999999999
172,27.1,100517.0,-0.006,0.135,-1.016,-50.0,-55.0,-10.0,10.62,-12.39,6.774,0.0,0.0,0,70.4035520026778,0.5252585000000001
173,27.1,100523.0,0.081,0.133,-0.965,-50.0,-55.0,-10.0,3.845,-2.746,5.126,0.0,0.0,0,69.8782737639372,0.4777375
174,27.1,100523.0,-0.017,0.064,-1.065,-50.0,-55.0,-10.0,29.418,-1.525,8.605,0.0,0.0,0,69.8782737639372,0.569305
175,27.1,100519.0,0.093,0.308,-0.995,-50.0,-55.0,-10.0,-18.737,-93.811,-10.498,0.0,0.0,0,70.22845510997453,0.5467690000000001
176,27.1,100519.0,0.129,0.196,-1.031,-50.0,-55.0,-10.0,-18.859,-9.521,25.573,0.0,0.0,0,70.22845510997453,0.5590089999999999
177,27.1,100516.0,0.179,0.238,-1.232,-50.0,-55.0,-10.0,11.23,-15.014,47.973,0.0,0.0,0,70.49110200403005,0.8032545
178,27.1,100517.0,0.19,0.274,-1.195,-50.0,-55.0,-10.0,-4.882,-6.835,29.479,0.0,0.0,0,70.4035520026778,0.7696005
179,27.1,100522.0,0.176,0.313,-1.256,-50.0,-55.0,-10.0,10.803,-41.687,25.512,0.0,0.0,0,69.96581754558437,0.8532405000000001
180,27.1,100517.0,0.239,0.286,-1.219,-50.0,-55.0,-10.0,-22.46,-14.038,46.508,0.0,0.0,0,70.4035520026778,0.8124390000000001
181,27.1,100522.0,0.18,0.272,-1.135,-50.0,-55.0,-10.0,-23.376,-21.972,11.718,0.0,0.0,0,69.96581754558437,0.6973045
182,27.1,100515.0,0.164,0.282,-1.135,-50.0,-55.0,-10.0,-29.724,-1.831,40.466,0.0,0.0,0,70.57865304207334,0.6973225
183,27.1,100518.0,0.119,0.243,-1.017,-50.0,-55.0,-10.0,-22.216,19.287,40.161,0.0,0.0,0,70.31600303799604,0.5537494999999999
184,27.1,100515.0,0.092,0.23,-0.971,-50.0,-55.0,-10.0,-13.122,-7.568,32.043,0.0,0.0,0,70.57865304207334,0.5021025
185,27.1,100509.0,0.095,0.172,-0.904,-50.0,-55.0,-10.0,-61.828,-18.188,58.532,0.0,0.0,0,71.10398104226,0.42791250000000003
186,27.1,100514.0,0.056,0.043,-0.781,-50.0,-55.0,-10.0,-45.349,-8.666,50.231,0.0,0.0,0,70.66620511683843,0.30747300000000005
187,27.1,100520.0,0.036,0.009,-0.706,-50.0,-55.0,-10.0,-21.911,23.925,65.002,0.0,0.0,0,70.14090821857226,0.24990649999999998
188,27.1,100507.0,0.059,-0.006,-0.708,-50.0,-55.0,-10.0,-13.305,18.92,81.665,0.0,0.0,0,71.27909867025045,0.25239049999999996
189,27.1,100512.0,0.061,-0.071,-0.816,-50.0,-55.0,-10.0,8.666,7.263,68.176,0.0,0.0,0,70.84131237662629,0.33730899999999997
190,27.1,100508.0,0.0,-0.004,-0.943,-50.0,-55.0,-10.0,-9.338,1.037,67.321,0.0,0.0,0,71.1915393378174,0.4446325
191,27.1,100505.0,-0.016,-0.008,-0.898,-50.0,-55.0,-10.0,-0.732,-7.873,57.128,0.0,0.0,0,71.45422044583579,0.403362
192,27.1,100514.0,-0.087,-0.03,-0.803,-50.0,-55.0,-10.0,18.493,38.757,33.874,0.0,0.0,0,70.66620511683843,0.326639
193,27.1,100512.0,0.016,0.001,-0.909,-50.0,-55.0,-10.0,13.305,-5.981,60.424,0.0,0.0,0,70.84131237662629,0.413269
194,27.1,100509.0,0.047,0.093,-0.952,-50.0,-55.0,-10.0,-17.211,-10.253,37.109,0.0,0.0,0,71.10398104226,0.45858099999999996
195,27.1,100510.0,0.086,0.155,-1.033,-50.0,-55.0,-10.0,-12.451,-9.521,-0.244,0.0,0.0,0,71.01642378355774,0.5492549999999998
196,27.1,100510.0,0.102,0.082,-0.972,-50.0,-55.0,-10.0,-2.38,26.794,0.183,0.0,0.0,0,71.01642378355774,0.480956
197,27.1,100507.0,0.012,0.129,-0.891,-50.0,-55.0,-10.0,-26.672,-8.117,-5.859,0.0,0.0,0,71.27909867025045,0.40533300000000005
198,27.1,100506.0,0.06,0.091,-0.958,-50.0,-55.0,-10.0,-15.991,-7.69,29.785,0.0,0.0,0,71.36665903957966,0.46482249999999997
199,27.1,100508.0,-0.037,0.068,-0.933,-50.0,-55.0,-10.0,18.005,25.207,-5.554,0.0,0.0,0,71.1915393378174,0.43824100000000005
200,27.1,100508.0,-0.013,0.064,-0.949,-50.0,-55.0,-10.0,-0.122,-18.005,-39.367,0.0,0.0,0,71.1915393378174,0.4524329999999999
201,27.1,100508.0,-0.065,0.062,-0.942,-50.0,-55.0,-10.0,8.422,24.353,-14.404,0.0,0.0,0,71.1915393378174,0.44771649999999996
202,27.1,100518.0,-0.138,-0.044,-0.98,-50.0,-55.0,-10.0,-14.465,-8.056,-22.827,0.0,0.0,0,70.31600303799604,0.49068999999999996
203,27.1,100509.0,-0.113,0.138,-0.935,-50.0,-55.0,-10.0,-21.179,0.061,-29.541,0.0,0.0,0,71.10398104226,0.45301900000000006
204,27.1,100516.0,0.032,0.281,-1.049,-50.0,-55.0,-10.0,-39.123,45.959,-57.983,0.0,0.0,0,70.49110200403005,0.590193
205,27.1,100513.0,0.106,0.266,-1.05,-50.0,-55.0,-10.0,-46.691,45.349,-89.294,0.0,0.0,0,70.75375822834582,0.592246
206,27.1,100515.0,0.223,-0.07,-1.232,-50.0,-55.0,-10.0,-15.441,-13.549,-30.395,0.0,0.0,0,70.57865304207334,0.7862265
207,27.0,100505.0,0.284,0.075,-1.101,-50.0,-55.0,-10.0,7.629,-3.479,8.056,0.0,0.0,0,71.43042220422184,0.649241
208,27.0,100508.0,0.156,0.004,-1.101,-50.0,-55.0,-10.0,15.563,-13.061,-8.789,0.0,0.0,0,71.16782858366659,0.6182764999999999
209,27.0,100505.0,0.091,0.019,-1.039,-50.0,-55.0,-10.0,21.789,-12.39,30.212,0.0,0.0,0,71.43042220422184,0.5440814999999999
210,27.1,100509.0,0.013,0.034,-0.98,-50.0,-55.0,-10.0,38.635,9.765,36.193,0.0,0.0,0,71.10398104226,0.48086249999999997
211,27.0,100509.0,-0.07,-0.041,-1.04,-50.0,-55.0,-10.0,-7.324,-31.982,56.03,0.0,0.0,0,71.0802994499062,0.5440905
212,27.1,100510.0,0.099,0.014,-1.062,-50.0,-55.0,-10.0,55.725,-133.911,59.692,0.0,0.0,0,71.01642378355774,0.5689205
213,27.0,100507.0,-0.033,0.099,-1.054,-50.0,-55.0,-10.0,75.195,-13.0,61.401,0.0,0.0,0,71.25535875395727,0.560903
214,27.1,100501.0,0.103,0.194,-0.815,-50.0,-55.0,-10.0,34.118,-0.366,70.312,0.0,0.0,0,71.80447644055013,0.35623499999999997
215,27.0,100508.0,0.109,0.286,-0.708,-50.0,-55.0,-10.0,-9.582,14.526,70.007,0.0,0.0,0,71.16782858366659,0.29747049999999997
216,27.0,100509.0,-0.052,0.252,-0.755,-50.0,-55.0,-10.0,-32.897,-48.034,35.461,0.0,0.0,0,71.0802994499062,0.3181165
217,27.1,100512.0,0.039,0.241,-0.854,-50.0,-55.0,-10.0,-2.563,-57.8,78.491,0.0,0.0,0,70.84131237662629,0.394459
218,27.0,100515.0,-0.062,0.46,-0.877,-50.0,-55.0,-10.0,-27.709,-84.655,57.25,0.0,0.0,0,70.55514641325,0.49228649999999996
219,27.0,100513.0,0.031,0.325,-0.94,-50.0,-55.0,-10.0,-39.184,26.428,101.989,0.0,0.0,0,70.73019327972688,0.495093
220,27.0,100516.0,0.085,0.254,-0.931,-50.0,-55.0,-10.0,-63.659,-36.01,41.381,0.0,0.0,0,70.46762453458658,0.4692510000000001
221,27.0,100514.0,0.07,0.259,-0.922,-50.0,-55.0,-10.0,-41.259,-23.437,37.963,0.0,0.0,0,70.64266932828993,0.4610325
222,27.0,100511.0,0.071,0.148,-1.031,-50.0,-55.0,-10.0,-7.263,-2.136,38.146,0.0,0.0,0,70.9052442918841,0.5449529999999999
223,27.0,100522.0,0.146,0.138,-1.063,-50.0,-55.0,-10.0,-23.193,-16.601,30.7,0.0,0.0,0,69.94251502516951,0.5851644999999999
224,27.0,100518.0,0.133,0.235,-1.107,-50.0,-55.0,-10.0,-4.455,-3.051,17.15,0.0,0.0,0,70.29258388627647,0.6491815
225,27.0,100517.0,0.118,0.222,-1.062,-50.0,-55.0,-10.0,-59.509,-19.897,9.826,0.0,0.0,0,70.3801036922689,0.595526
226,27.0,100512.0,0.144,-0.01,-1.149,-50.0,-55.0,-10.0,-52.551,30.7,26.977,0.0,0.0,0,70.8177182675916,0.6705185
227,27.0,100510.0,0.137,0.065,-1.06,-50.0,-55.0,-10.0,-1.892,-28.93,21.606,0.0,0.0,0,70.99277135265564,0.5732970000000001
228,27.0,100515.0,0.156,0.108,-1.043,-50.0,-55.0,-10.0,-16.296,16.906,16.113,0.0,0.0,0,70.55514641325,0.5619244999999999
229,27.0,100517.0,0.13,0.05,-1.003,-50.0,-55.0,-10.0,-10.62,16.662,8.85,0.0,0.0,0,70.3801036922689,0.5127044999999999
230,27.0,100515.0,0.006,0.06,-0.884,-50.0,-55.0,-10.0,-47.18,-6.042,15.869,0.0,0.0,0,70.55514641325,0.392546
231,27.0,100512.0,0.019,0.109,-0.896,-50.0,-55.0,-10.0,-52.673,5.493,10.314,0.0,0.0,0,70.8177182675916,0.40752900000000003
232,27.0,100512.0,0.125,-0.041,-0.944,-50.0,-55.0,-10.0,-40.222,11.718,46.752,0.0,0.0,0,70.8177182675916,0.454221
233,27.0,100515.0,0.15,-0.056,-0.94,-50.0,-55.0,-10.0,-52.307,-2.746,59.387,0.0,0.0,0,70.55514641325,0.45461799999999997
234,27.0,100515.0,0.133,-0.092,-0.99,-50.0,-55.0,-10.0,13.793,2.502,44.006,0.0,0.0,0,70.55514641325,0.5031265
235,27.0,100515.0,0.237,0.001,-0.904,-50.0,-55.0,-10.0,10.07,-0.854,43.09,0.0,0.0,0,70.55514641325,0.436693
236,27.0,100512.0,0.235,0.101,-0.864,-50.0,-55.0,-10.0,29.785,7.751,40.039,0.0,0.0,0,70.8177182675916,0.40596099999999996
237,27.0,100512.0,0.261,0.151,-1.049,-50.0,-55.0,-10.0,10.253,-28.808,67.932,0.0,0.0,0,70.8177182675916,0.5956615
238,27.0,100509.0,0.219,0.083,-1.029,-50.0,-55.0,-10.0,-41.992,-11.535,62.194,0.0,0.0,0,71.0802994499062,0.5568455
239,27.0,100510.0,0.211,-0.015,-0.926,-50.0,-55.0,-10.0,-23.254,-2.502,18.615,0.0,0.0,0,70.99277135265564,0.45111100000000004
240,27.0,100516.0,0.268,-0.025,-0.915,-50.0,-55.0,-10.0,34.484,25.817,57.25,0.0,0.0,0,70.46762453458658,0.45483700000000005
241,27.0,100508.0,0.188,-0.123,-1.068,-50.0,-55.0,-10.0,-1.281,-36.865,21.118,0.0,0.0,0,71.16782858366659,0.5955485
242,27.0,100510.0,0.07,-0.098,-1.097,-50.0,-55.0,-10.0,2.624,-7.995,-10.192,0.0,0.0,0,70.99277135265564,0.6089565
243,27.0,100522.0,0.106,-0.033,-1.09,-50.0,-55.0,-10.0,-36.132,-14.709,3.112,0.0,0.0,0,69.94251502516951,0.6002125
244,27.0,100518.0,0.205,-0.104,-1.014,-50.0,-55.0,-10.0,14.77,3.662,22.644,0.0,0.0,0,70.29258388627647,0.5405185
245,27.0,100514.0,0.231,-0.002,-1.081,-50.0,-55.0,-10.0,31.921,-1.342,-1.037,0.0,0.0,0,70.64266932828993,0.610963
246,27.0,100515.0,0.177,0.045,-1.041,-50.0,-55.0,-10.0,4.821,1.037,-7.751,0.0,0.0,0,70.55514641325,0.5585175
247,27.0,100514.0,0.243,0.073,-1.031,-50.0,-55.0,-10.0,-21.85,-17.211,6.958,0.0,0.0,0,70.64266932828993,0.5636694999999999
248,27.0,100509.0,0.226,0.096,-1.12,-50.0,-55.0,-10.0,-3.601,-21.301,-8.3,0.0,0.0,0,71.0802994499062,0.6573460000000001
249,26.899,100514.0,0.299,0.148,-1.029,-50.0,-55.0,-10.0,9.094,16.235,-2.319,0.0,0.0,0,70.61889818185597,0.585073
250,26.899,100513.0,0.116,-0.014,-1.016,-50.0,-55.0,-10.0,-6.713,24.291,-26.855,0.0,0.0,0,70.70639268162175,0.522954
251,26.899,100510.0,0.141,0.157,-1.009,-50.0,-55.0,-10.0,-32.287,-8.544,-9.094,0.0,0.0,0,70.96888239744452,0.5313054999999999
252,27.0,100518.0,0.236,0.168,-0.911,-50.0,-55.0,-10.0,-38.452,14.404,31.188,0.0,0.0,0,70.29258388627647,0.4569205
253,26.899,100510.0,0.268,0.017,-0.942,-50.0,-55.0,-10.0,6.958,-10.742,31.799,0.0,0.0,0,70.96888239744452,0.47973849999999996
254,26.899,100509.0,0.114,0.164,-0.895,-50.0,-55.0,-10.0,1.037,5.798,5.554,0.0,0.0,0,71.05638104162888,0.4204585
255,26.899,100518.0,0.211,0.119,-0.952,-50.0,-55.0,-10.0,-66.406,-10.253,-12.573,0.0,0.0,0,70.26893054303972,0.48249299999999995
256,26.899,100518.0,0.1,0.022,-0.858,-50.0,-55.0,-10.0,-85.632,33.752,20.874,0.0,0.0,0,70.26893054303972,0.373324
257,26.899,100515.0,0.155,0.034,-0.886,-50.0,-55.0,-10.0,-90.209,-0.976,2.258,0.0,0.0,0,70.53140471813843,0.4050885
258,26.899,100517.0,0.237,-0.188,-0.969,-50.0,-55.0,-10.0,-21.911,-12.817,85.754,0.0,0.0,0,70.35642089875593,0.515237
259,26.899,100515.0,0.224,0.062,-1.016,-50.0,-55.0,-10.0,-15.38,-15.502,-1.586,0.0,0.0,0,70.53140471813843,0.543138
260,26.899,100512.0,0.199,0.035,-1.231,-50.0,-55.0,-10.0,49.133,7.324,48.889,0.0,0.0,0,70.79388821746657,0.7780935000000001
261,26.899,100514.0,0.28,0.246,-1.056,-50.0,-55.0,-10.0,-6.53,39.062,65.368,0.0,0.0,0,70.61889818185597,0.6270260000000001
262,26.899,100518.0,0.313,0.062,-1.151,-50.0,-55.0,-10.0,-60.791,24.475,58.593,0.0,0.0,0,70.26893054303972,0.713307
263,26.899,100505.0,0.257,-0.049,-1.107,-50.0,-55.0,-10.0,-33.264,1.831,78.491,0.0,0.0,0,71.40638598019177,0.6469495
264,26.899,100514.0,0.252,0.122,-1.033,-50.0,-55.0,-10.0,35.888,46.813,65.307,0.0,0.0,0,70.61889818185597,0.5727384999999998
265,26.899,100508.0,0.084,0.068,-1.002,-50.0,-55.0,-10.0,-14.282,-7.202,57.678,0.0,0.0,0,71.14388072197427,0.5078419999999999
266,26.899,100517.0,0.064,0.096,-0.969,-50.0,-55.0,-10.0,6.286,6.713,78.369,0.0,0.0,0,70.35642089875593,0.47613649999999996
267,26.899,100512.0,0.021,0.036,-0.917,-50.0,-55.0,-10.0,8.85,-6.591,75.744,0.0,0.0,0,70.79388821746657,0.42131300000000005
268,26.899,100508.0,0.051,-0.031,-0.92,-50.0,-55.0,-10.0,-20.751,8.361,72.143,0.0,0.0,0,71.14388072197427,0.424981
269,26.899,100517.0,0.101,-0.066,-0.917,-50.0,-55.0,-10.0,-17.944,5.798,51.269,0.0,0.0,0,70.35642089875593,0.4277230000000001
270,26.899,100511.0,0.08,-0.168,-0.911,-50.0,-55.0,-10.0,17.456,10.009,21.057,0.0,0.0,0,70.88138478939041,0.4322725
271,26.899,100509.0,0.114,0.002,-1.012,-50.0,-55.0,-10.0,39.855,-0.488,9.338,0.0,0.0,0,71.05638104162888,0.5185719999999999
272,26.899,100513.0,0.159,-0.006,-1.04,-50.0,-55.0,-10.0,-20.935,-13.732,24.353,0.0,0.0,0,70.70639268162175,0.5534585000000001
273,26.899,100514.0,0.083,-0.078,-0.984,-50.0,-55.0,-10.0,5.92,10.742,-9.277,0.0,0.0,0,70.61889818185597,0.4906145
274,26.899,100511.0,0.049,-0.062,-0.973,-50.0,-55.0,-10.0,27.709,6.774,31.127,0.0,0.0,0,70.88138478939041,0.476487
275,26.899,100512.0,0.017,0.032,-0.86,-50.0,-55.0,-10.0,4.76,43.823,3.479,0.0,0.0,0,70.79388821746657,0.37045649999999997
276,26.899,100521.0,0.019,0.071,-0.907,-50.0,-55.0,-10.0,-25.451,-5.859,6.896,0.0,0.0,0,70.00646569156567,0.41402550000000005
277,26.899,100514.0,0.058,0.122,-1.051,-50.0,-55.0,-10.0,2.258,12.512,39.123,0.0,0.0,0,70.61889818185597,0.5614245
278,26.899,100506.0,0.056,0.066,-0.992,-50.0,-55.0,-10.0,-9.46,-1.342,25.146,0.0,0.0,0,71.31888319123009,0.495778
279,26.899,100506.0,-0.004,-0.007,-1.035,-50.0,-55.0,-10.0,0.122,-15.075,15.991,0.0,0.0,0,71.31888319123009,0.5356449999999999
280,26.899,100506.0,0.054,0.112,-0.893,-50.0,-55.0,-10.0,-10.559,-13.061,55.48,0.0,0.0,0,71.31888319123009,0.40645450000000005
281,26.899,100507.0,0.082,0.048,-0.931,-50.0,-55.0,-10.0,-5.981,-26.916,51.635,0.0,0.0,0,71.23138143850116,0.4378945000000001
282,26.899,100508.0,0.024,0.088,-0.9,-50.0,-55.0,-10.0,-2.563,11.901,9.094,0.0,0.0,0,71.14388072197427,0.40916
283,26.899,100506.0,0.069,-0.006,-0.921,-50.0,-55.0,-10.0,-29.235,-1.403,7.019,0.0,0.0,0,71.31888319123009,0.42651900000000004
284,26.899,100513.0,0.154,0.008,-1.075,-50.0,-55.0,-10.0,-22.521,-13.122,35.766,0.0,0.0,0,70.70639268162175,0.5897024999999999
285,26.899,100511.0,0.172,0.011,-1.007,-50.0,-55.0,-10.0,-17.639,28.137,9.887,0.0,0.0,0,70.88138478939041,0.5218769999999999
286,26.799,100512.0,0.25,-0.004,-1.017,-50.0,-55.0,-10.0,22.033,5.31,15.625,0.0,0.0,0,70.7702941084319,0.5484024999999999
287,26.899,100509.0,0.193,0.133,-0.972,-50.0,-55.0,-10.0,6.896,15.075,-13.61,0.0,0.0,0,71.05638104162888,0.499861
288,26.799,100507.0,0.163,0.034,-0.796,-50.0,-55.0,-10.0,1.953,14.282,-2.441,0.0,0.0,0,71.207641522208,0.33067050000000003
289,26.899,100511.0,0.116,0.063,-0.904,-50.0,-55.0,-10.0,1.403,-18.371,-29.174,0.0,0.0,0,70.88138478939041,0.41732050000000004
290,26.799,100510.0,0.16,0.145,-0.973,-50.0,-55.0,-10.0,-5.737,-9.094,-15.502,0.0,0.0,0,70.9452299665424,0.496677
291,26.799,100507.0,0.111,0.046,-0.941,-50.0,-55.0,-10.0,15.014,-27.954,-39.855,0.0,0.0,0,71.207641522208,0.44995899999999994
292,26.799,100513.0,0.122,0.154,-0.648,-50.0,-55.0,-10.0,80.932,25.512,-14.587,0.0,0.0,0,70.68282773300282,0.229252
293,26.799,100512.0,0.007,-0.088,-0.569,-50.0,-55.0,-10.0,12.451,16.479,-32.714,0.0,0.0,0,70.7702941084319,0.16577699999999998
294,26.799,100512.0,0.135,0.168,-0.853,-50.0,-55.0,-10.0,-50.231,-16.662,-54.382,0.0,0.0,0,70.7702941084319,0.38702899999999996
295,26.799,100514.0,0.191,0.231,-1.107,-50.0,-55.0,-10.0,13.427,-4.089,-17.089,0.0,0.0,0,70.59536239330747,0.6576455
296,26.799,100520.0,0.192,0.127,-0.966,-50.0,-55.0,-10.0,7.08,-18.249,17.456,0.0,0.0,0,70.07059210408835,0.49307449999999997
297,26.799,100515.0,0.213,0.081,-1.072,-50.0,-55.0,-10.0,-7.69,34.545,-22.521,0.0,0.0,0,70.50789808931509,0.6005570000000001
298,26.799,100514.0,0.124,-0.044,-1.139,-50.0,-55.0,-10.0,-22.277,4.76,-95.153,0.0,0.0,0,70.59536239330747,0.6573165
299,26.799,100511.0,0.272,0.254,-1.085,-50.0,-55.0,-10.0,27.648,17.578,-29.357,0.0,0.0,0,70.85776151959467,0.6578625
300,26.799,100511.0,0.014,0.061,-0.739,-50.0,-55.0,-10.0,16.784,-4.333,-65.429,0.0,0.0,0,70.85776151959467,0.27501899999999996
301,26.799,100514.0,0.108,-0.043,-0.717,-50.0,-55.0,-10.0,-28.137,23.803,-46.386,0.0,0.0,0,70.59536239330747,0.26380099999999995
302,26.799,100514.0,0.264,-0.098,-1.049,-50.0,-55.0,-10.0,-7.995,-11.23,-60.058,0.0,0.0,0,70.59536239330747,0.5898504999999999
303,26.799,100516.0,0.253,0.117,-1.106,-50.0,-55.0,-10.0,37.475,18.859,-59.509,0.0,0.0,0,70.42043482100519,0.6504670000000001
304,26.799,100520.0,0.176,0.054,-0.935,-50.0,-55.0,-10.0,-21.423,10.375,-55.175,0.0,0.0,0,70.07059210408835,0.4540585000000001
305,26.799,100513.0,0.157,-0.058,-0.968,-50.0,-55.0,-10.0,13.854,1.953,-43.884,0.0,0.0,0,70.68282773300282,0.48251849999999996
306,26.799,100517.0,0.305,0.214,-1.028,-50.0,-55.0,-10.0,5.676,5.798,-83.557,0.0,0.0,0,70.33297258834705,0.5978025
307,26.799,100513.0,0.248,0.193,-1.103,-50.0,-55.0,-10.0,48.4,19.348,-76.416,0.0,0.0,0,70.68282773300282,0.6576810000000001
308,26.799,100515.0,0.141,0.238,-0.871,-50.0,-55.0,-10.0,62.438,22.338,-109.497,0.0,0.0,0,70.50789808931509,0.417583
309,26.799,100516.0,0.028,0.076,-0.853,-50.0,-55.0,-10.0,13.549,18.066,-101.684,0.0,0.0,0,70.42043482100519,0.3670845
310,26.799,100517.0,0.224,0.237,-0.979,-50.0,-55.0,-10.0,-21.423,37.597,-82.458,0.0,0.0,0,70.33297258834705,0.532393
311,26.799,100520.0,0.382,0.185,-1.09,-50.0,-55.0,-10.0,36.804,29.724,-57.128,0.0,0.0,0,70.07059210408835,0.6841245
312,26.799,100520.0,0.266,0.201,-1.052,-50.0,-55.0,-10.0,28.686,4.333,-68.115,0.0,0.0,0,70.07059210408835,0.6089305
313,26.799,100523.0,0.208,0.173,-0.965,-50.0,-55.0,-10.0,-7.141,30.09,-62.683,0.0,0.0,0,69.80822093994736,0.502209
314,26.799,100527.0,0.247,0.131,-0.979,-50.0,-55.0,-10.0,-8.85,11.535,-73.364,0.0,0.0,0,69.45840721796972,0.5183055
315,26.799,100521.0,0.256,0.313,-1.071,-50.0,-55.0,-10.0,16.235,38.635,-111.877,0.0,0.0,0,69.98313401384249,0.655273
316,26.799,100525.0,0.285,0.365,-0.896,-50.0,-55.0,-10.0,10.986,42.663,-94.482,0.0,0.0,0,69.63331200804443,0.508633
317,26.799,100526.0,0.058,0.103,-0.661,-50.0,-55.0,-10.0,41.931,41.87,-118.774,0.0,0.0,0,69.54585909528879,0.22544700000000004
318,26.799,100527.0,0.282,0.19,-0.77,-50.0,-55.0,-10.0,-43.884,31.188,-81.359,0.0,0.0,0,69.45840721796972,0.35426199999999997
319,26.799,100532.0,0.329,0.421,-1.113,-50.0,-55.0,-10.0,35.217,25.146,-97.9,0.0,0.0,0,69.02116336203144,0.7621255
320,26.799,100532.0,0.415,0.507,-1.022,-50.0,-55.0,-10.0,18.31,3.723,1.892,0.0,0.0,0,69.02116336203144,0.7368790000000001
321,26.799,100533.0,0.149,0.16,-1.083,-50.0,-55.0,-10.0,13.916,-9.643,-36.987,0.0,0.0,0,68.9337176968297,0.6103449999999999
322,26.799,100527.0,0.041,0.195,-0.985,-50.0,-55.0,-10.0,2.258,5.737,-36.132,0.0,0.0,0,69.45840721796972,0.5049655
323,26.799,100527.0,0.207,0.515,-0.98,-50.0,-55.0,-10.0,-5.31,40.222,-40.954,0.0,0.0,0,69.45840721796972,0.6342369999999999
324,26.799,100532.0,0.235,0.43,-0.997,-50.0,-55.0,-10.0,12.023,2.136,-30.273,0.0,0.0,0,69.02116336203144,0.617067
325,26.799,100538.0,0.164,0.368,-0.804,-50.0,-55.0,-10.0,26.977,19.653,-62.5,0.0,0.0,0,68.49650489944928,0.40436800000000006
326,26.799,100538.0,-0.055,0.123,-0.66,-50.0,-55.0,-10.0,23.803,21.728,-23.437,0.0,0.0,0,68.49650489944928,0.22687700000000002
327,26.799,100539.0,0.285,0.589,-0.741,-50.0,-55.0,-10.0,-74.157,6.591,-30.395,0.0,0.0,0,68.40906544554514,0.48861350000000003
328,26.799,100534.0,0.364,0.435,-1.107,-50.0,-55.0,-10.0,3.723,44.555,-5.249,0.0,0.0,0,68.84627306689035,0.773585
329,26.799,100537.0,0.17,0.343,-1.064,-50.0,-55.0,-10.0,-8.666,-40.344,-7.385,0.0,0.0,0,68.58394538851331,0.6393225000000001
330,26.799,100537.0,0.054,0.188,-0.971,-50.0,-55.0,-10.0,-12.084,16.54,-0.366,0.0,0.0,0,68.58394538851331,0.49055049999999994
331,26.799,100541.0,0.13,0.279,-0.89,-50.0,-55.0,-10.0,-13.061,28.93,-19.531,0.0,0.0,0,68.23418964313464,0.4434205
332,26.799,100538.0,0.247,0.371,-1.074,-50.0,-55.0,-10.0,-25.634,-40.954,0.183,0.0,0.0,0,68.49650489944928,0.6760630000000001
333,26.799,100530.0,0.121,0.252,-0.881,-50.0,-55.0,-10.0,-1.831,-7.873,9.582,0.0,0.0,0,69.19605779836552,0.427153
334,26.799,100539.0,0.184,0.141,-0.926,-50.0,-55.0,-10.0,29.602,-62.316,39.184,0.0,0.0,0,68.40906544554514,0.4556065000000001
335,26.799,100532.0,-0.013,0.134,-0.826,-50.0,-55.0,-10.0,-37.841,-13.793,-45.104,0.0,0.0,0,69.02116336203144,0.3502004999999999
336,26.799,100534.0,0.19,0.347,-0.888,-50.0,-55.0,-10.0,-41.931,60.607,-33.935,0.0,0.0,0,68.84627306689035,0.4725265
337,26.799,100537.0,0.48,0.344,-1.004,-50.0,-55.0,-10.0,8.3,2.136,36.376,0.0,0.0,0,68.58394538851331,0.678376
338,26.799,100539.0,0.176,0.229,-1.015,-50.0,-55.0,-10.0,-26.123,20.629,-33.935,0.0,0.0,0,68.40906544554514,0.5568209999999999
339,26.799,100542.0,0.099,-0.017,-0.986,-50.0,-55.0,-10.0,-29.663,8.789,-12.817,0.0,0.0,0,68.14675329458728,0.491143
340,26.799,100536.0,0.003,0.026,-0.89,-50.0,-55.0,-10.0,1.281,27.893,-57.617,0.0,0.0,0,68.67138691275777,0.39639250000000004
341,26.799,100539.0,0.15,0.057,-1.232,-50.0,-55.0,-10.0,24.78,-0.732,-33.203,0.0,0.0,0,68.40906544554514,0.7717865
342,26.799,100543.0,0.06,0.12,-1.006,-50.0,-55.0,-10.0,-39.733,8.239,-67.077,0.0,0.0,0,68.05931798109738,0.515018
343,26.799,100543.0,-0.071,0.008,-0.872,-50.0,-55.0,-10.0,-40.405,11.84,-107.91,0.0,0.0,0,68.05931798109738,0.3827445
344,26.799,100540.0,0.121,0.025,-0.904,-50.0,-55.0,-10.0,-20.69,0.915,-40.1,0.0,0.0,0,68.32162702678042,0.416241
345,26.799,100549.0,0.321,0.076,-1.345,-50.0,-55.0,-10.0,20.507,-24.108,-65.429,0.0,0.0,0,67.53472783542168,0.9589209999999999
346,26.799,100548.0,0.443,0.243,-1.567,-50.0,-55.0,-10.0,35.827,-15.38,-39.062,0.0,0.0,0,67.62215693895627,1.3553935
347,26.799,100549.0,0.246,0.111,-1.173,-50.0,-55.0,-10.0,40.954,-15.563,-31.86,0.0,0.0,0,67.53472783542168,0.7243830000000001
348,26.799,100537.0,0.089,0.203,-0.875,-50.0,-55.0,-10.0,4.272,25.512,-64.758,0.0,0.0,0,68.58394538851331,0.4073775
349,26.799,100545.0,0.115,0.114,-0.925,-50.0,-55.0,-10.0,54.626,17.395,-74.279,0.0,0.0,0,67.88445045925917,0.44092300000000006
350,26.799,100541.0,0.044,0.159,-0.928,-50.0,-55.0,-10.0,-50.72,0.854,-78.063,0.0,0.0,0,68.23418964313464,0.44420050000000005
351,26.799,100537.0,-0.05,-0.224,-1.07,-50.0,-55.0,-10.0,-27.77,-1.098,-60.485,0.0,0.0,0,68.58394538851331,0.598788
352,26.799,100538.0,0.093,0.059,-1.041,-50.0,-55.0,-10.0,26.123,14.77,-29.235,0.0,0.0,0,68.49650489944928,0.5479054999999999
353,26.799,100540.0,0.202,0.221,-1.045,-50.0,-55.0,-10.0,-33.752,-3.601,-48.95,0.0,0.0,0,68.32162702678042,0.5908349999999999
354,26.799,100539.0,0.136,0.117,-1.036,-50.0,-55.0,-10.0,-51.33,13.366,-52.917,0.0,0.0,0,68.40906544554514,0.5527405
355,26.799,100538.0,0.202,0.053,-0.991,-50.0,-55.0,-10.0,-5.004,21.484,-46.875,0.0,0.0,0,68.49650489944928,0.5128469999999999
356,26.799,100539.0,0.209,0.215,-1.05,-50.0,-55.0,-10.0,19.714,18.127,-62.622,0.0,0.0,0,68.40906544554514,0.596203
357,26.799,100538.0,0.056,0.127,-0.897,-50.0,-55.0,-10.0,1.098,34.484,-62.988,0.0,0.0,0,68.49650489944928,0.411937
358,26.799,100541.0,-0.07,0.184,-0.877,-50.0,-55.0,-10.0,-20.324,20.08,-75.378,0.0,0.0,0,68.23418964313464,0.4039425
359,26.799,100539.0,-0.006,0.177,-0.855,-50.0,-55.0,-10.0,-1.953,-10.375,-20.996,0.0,0.0,0,68.40906544554514,0.38119499999999995
360,26.799,100545.0,0.045,0.148,-0.876,-50.0,-55.0,-10.0,-15.502,-10.62,-22.888,0.0,0.0,0,67.88445045925917,0.39565249999999996
361,26.799,100550.0,-0.088,0.189,-0.965,-50.0,-55.0,-10.0,-0.122,-0.305,-59.631,0.0,0.0,0,67.44729976680108,0.487345
362,26.799,100546.0,-0.015,0.112,-1.041,-50.0,-55.0,-10.0,10.437,5.371,-3.173,0.0,0.0,0,67.79701825084939,0.548225
363,26.799,100547.0,0.062,0.243,-1.138,-50.0,-55.0,-10.0,-12.817,-43.395,-1.403,0.0,0.0,0,67.70958707742534,0.6789685
364,26.799,100542.0,0.081,0.211,-0.998,-50.0,-55.0,-10.0,-28.625,10.375,-0.061,0.0,0.0,0,68.14675329458728,0.523543
365,26.799,100541.0,0.056,0.088,-0.968,-50.0,-55.0,-10.0,-17.578,-19.714,33.203,0.0,0.0,0,68.23418964313464,0.473952
366,26.799,100545.0,0.05,0.112,-0.837,-50.0,-55.0,-10.0,-9.704,-0.183,26.306,0.0,0.0,0,67.88445045925917,0.3578065
367,26.799,100552.0,0.055,0.109,-0.879,-50.0,-55.0,-10.0,-20.629,5.065,52.673,0.0,0.0,0,67.27244673421994,0.3937735
368,26.799,100547.0,0.05,0.041,-1.033,-50.0,-55.0,-10.0,-1.77,-31.616,83.312,0.0,0.0,0,67.70958707742534,0.5356349999999999
369,26.799,100544.0,0.103,0.049,-0.978,-50.0,-55.0,-10.0,-22.583,-9.826,82.458,0.0,0.0,0,67.97188370266493,0.484747
370,26.799,100542.0,0.129,0.014,-1.03,-50.0,-55.0,-10.0,-28.625,-31.005,71.35,0.0,0.0,0,68.14675329458728,0.5388685
371,26.799,100539.0,0.14,-0.002,-1.068,-50.0,-55.0,-10.0,6.408,14.465,63.659,0.0,0.0,0,68.40906544554514,0.580114
372,26.799,100545.0,0.012,-0.008,-1.132,-50.0,-55.0,-10.0,34.423,3.601,10.314,0.0,0.0,0,67.88445045925917,0.6408159999999998
373,26.799,100538.0,0.024,0.133,-0.936,-50.0,-55.0,-10.0,18.31,-1.037,23.986,0.0,0.0,0,68.49650489944928,0.44718050000000004
374,26.799,100549.0,0.02,0.099,-0.989,-50.0,-55.0,-10.0,-27.954,11.84,36.437,0.0,0.0,0,67.53472783542168,0.494161
375,26.799,100554.0,-0.021,0.036,-0.907,-50.0,-55.0,-10.0,-15.747,9.46,20.324,0.0,0.0,0,67.09759784101811,0.41219300000000003
376,26.799,100552.0,-0.049,0.045,-0.946,-50.0,-55.0,-10.0,2.563,-4.211,24.902,0.0,0.0,0,67.27244673421994,0.449671
377,26.799,100549.0,0.008,-0.027,-1.095,-50.0,-55.0,-10.0,-18.249,-10.192,16.784,0.0,0.0,0,67.53472783542168,0.599909
378,26.799,100543.0,0.132,0.087,-1.09,-50.0,-55.0,-10.0,-33.264,22.705,-14.038,0.0,0.0,0,68.05931798109738,0.6065465000000001
379,26.799,100552.0,0.1,0.087,-1.068,-50.0,-55.0,-10.0,4.15,11.718,-15.075,0.0,0.0,0,67.27244673421994,0.5790965
380,26.799,100543.0,0.062,0.02,-1.041,-50.0,-55.0,-10.0,-16.784,-17.028,-15.38,0.0,0.0,0,68.05931798109738,0.5439624999999999
381,26.799,100546.0,0.131,0.069,-1.003,-50.0,-55.0,-10.0,22.46,31.494,-4.211,0.0,0.0,0,67.79701825084939,0.5139654999999999
382,26.799,100548.0,0.012,0.039,-0.92,-50.0,-55.0,-10.0,-35.583,7.019,-13.671,0.0,0.0,0,67.62215693895627,0.42403250000000003
383,26.799,100541.0,0.012,0.009,-0.87,-50.0,-55.0,-10.0,-25.695,28.625,7.202,0.0,0.0,0,68.23418964313464,0.3785625
384,26.799,100541.0,0.048,-0.002,-0.951,-50.0,-55.0,-10.0,-7.629,0.305,24.291,0.0,0.0,0,68.23418964313464,0.45335449999999994
385,26.799,100548.0,0.015,0.045,-0.959,-50.0,-55.0,-10.0,-19.592,9.033,4.577,0.0,0.0,0,67.62215693895627,0.4609655
386,26.799,100545.0,-0.067,0.008,-1.092,-50.0,-55.0,-10.0,-5.371,-17.517,19.287,0.0,0.0,0,67.88445045925917,0.5985085000000001
387,26.799,100543.0,0.009,0.105,-0.918,-50.0,-55.0,-10.0,-20.568,15.38,35.705,0.0,0.0,0,68.05931798109738,0.426915
388,26.799,100543.0,0.002,-0.032,-0.95,-50.0,-55.0,-10.0,-16.113,-15.197,27.954,0.0,0.0,0,68.05931798109738,0.451764
389,26.799,100546.0,-0.06,-0.009,-0.896,-50.0,-55.0,-10.0,5.493,1.892,5.371,0.0,0.0,0,67.79701825084939,0.40324850000000007
390,26.799,100542.0,-0.089,-0.063,-0.903,-50.0,-55.0,-10.0,-11.901,-11.596,14.465,0.0,0.0,0,68.14675329458728,0.4136495
391,26.799,100545.0,0.003,-0.036,-0.978,-50.0,-55.0,-10.0,-1.586,-3.112,8.728,0.0,0.0,0,67.88445045925917,0.4788945
392,26.799,100540.0,0.067,0.044,-0.985,-50.0,-55.0,-10.0,-17.15,-8.605,0.488,0.0,0.0,0,68.32162702678042,0.488325
393,26.799,100543.0,0.057,-0.041,-1.056,-50.0,-55.0,-10.0,0.366,-39.855,23.986,0.0,0.0,0,68.05931798109738,0.5600330000000001
394,26.799,100552.0,0.121,0.103,-0.991,-50.0,-55.0,-10.0,25.817,-2.38,6.042,0.0,0.0,0,67.27244673421994,0.5036655
395,26.799,100547.0,0.179,0.086,-1.1,-50.0,-55.0,-10.0,17.822,-18.92,54.931,0.0,0.0,0,67.70958707742534,0.6247185000000001
396,26.799,100549.0,0.173,0.098,-1.05,-50.0,-55.0,-10.0,-19.104,4.272,16.723,0.0,0.0,0,67.53472783542168,0.5710165
397,26.799,100541.0,0.058,0.029,-0.949,-50.0,-55.0,-10.0,-26.245,-0.305,22.521,0.0,0.0,0,68.23418964313464,0.45240299999999994
398,26.799,100537.0,0.025,0.056,-0.957,-50.0,-55.0,-10.0,1.342,21.118,49.316,0.0,0.0,0,68.58394538851331,0.45980499999999996
399,26.799,100542.0,0.087,0.216,-0.929,-50.0,-55.0,-10.0,33.447,1.647,66.101,0.0,0.0,0,68.14675329458728,0.458633
400,26.799,100550.0,0.083,0.282,-0.913,-50.0,-55.0,-10.0,0.488,-5.676,57.617,0.0,0.0,0,67.44729976680108,0.45999100000000004
401,26.799,100541.0,0.019,0.124,-0.928,-50.0,-55.0,-10.0,14.709,-9.765,74.157,0.0,0.0,0,68.23418964313464,0.43846050000000003
402,26.799,100537.0,0.078,0.205,-0.908,-50.0,-55.0,-10.0,6.469,-25.207,54.687,0.0,0.0,0,68.58394538851331,0.4362865
403,26.799,100546.0,0.021,0.227,-0.899,-50.0,-55.0,-10.0,32.531,-7.019,11.718,0.0,0.0,0,67.79701825084939,0.4300855
404,26.799,100549.0,0.037,0.267,-0.885,-50.0,-55.0,-10.0,34.484,-3.967,28.503,0.0,0.0,0,67.53472783542168,0.42794150000000003
405,26.799,100548.0,0.058,0.25,-1.002,-50.0,-55.0,-10.0,-2.075,-25.268,20.141,0.0,0.0,0,67.62215693895627,0.5349339999999999
406,26.799,100547.0,0.025,0.246,-0.952,-50.0,-55.0,-10.0,12.451,11.779,-5.493,0.0,0.0,0,67.70958707742534,0.48372249999999994
407,26.799,100546.0,0.062,0.289,-1.053,-50.0,-55.0,-10.0,26.367,11.169,-12.695,0.0,0.0,0,67.79701825084939,0.5980869999999999
408,26.799,100548.0,0.129,0.373,-1.033,-50.0,-55.0,-10.0,-2.502,14.16,-18.249,0.0,0.0,0,67.62215693895627,0.6114294999999998
409,26.799,100547.0,0.137,0.288,-1.055,-50.0,-55.0,-10.0,-60.058,1.22,-28.259,0.0,0.0,0,67.70958707742534,0.6073689999999999
410,26.799,100548.0,0.094,0.235,-0.991,-50.0,-55.0,-10.0,-23.315,15.625,-40.405,0.0,0.0,0,67.62215693895627,0.523071
411,26.799,100548.0,0.117,0.13,-0.982,-50.0,-55.0,-10.0,-22.155,-23.559,-23.986,0.0,0.0,0,67.62215693895627,0.49745649999999997
412,26.799,100540.0,0.066,0.166,-1.0,-50.0,-55.0,-10.0,-10.803,-12.023,-26.306,0.0,0.0,0,68.32162702678042,0.515956
413,26.799,100550.0,0.187,0.204,-0.951,-50.0,-55.0,-10.0,9.521,2.38,-22.827,0.0,0.0,0,67.44729976680108,0.49049299999999996
414,26.799,100546.0,0.137,0.182,-0.931,-50.0,-55.0,-10.0,5.249,-2.563,-35.644,0.0,0.0,0,67.79701825084939,0.45932700000000004
415,26.799,100547.0,0.181,0.134,-0.96,-50.0,-55.0,-10.0,-14.099,-35.766,-19.226,0.0,0.0,0,67.70958707742534,0.4861585
416,26.799,100546.0,0.171,0.101,-0.963,-50.0,-55.0,-10.0,0.0,-0.549,12.634,0.0,0.0,0,67.79701825084939,0.48340549999999993
417,26.799,100551.0,0.213,0.173,-0.97,-50.0,-55.0,-10.0,-5.371,24.963,-0.427,0.0,0.0,0,67.35987273308426,0.508099
418,26.799,100546.0,0.171,0.13,-0.984,-50.0,-55.0,-10.0,-6.774,7.08,-5.554,0.0,0.0,0,67.79701825084939,0.5071985
419,26.799,100542.0,0.141,0.201,-0.912,-50.0,-55.0,-10.0,-10.375,-2.99,-4.516,0.0,0.0,0,68.14675329458728,0.446013
420,26.799,100546.0,0.132,0.133,-1.031,-50.0,-55.0,-10.0,-10.253,28.686,1.892,0.0,0.0,0,67.79701825084939,0.5490369999999999
421,26.799,100542.0,0.118,0.144,-0.936,-50.0,-55.0,-10.0,-17.089,5.92,5.065,0.0,0.0,0,68.14675329458728,0.45537800000000006
422,26.799,100548.0,0.04,0.166,-1.128,-50.0,-55.0,-10.0,0.671,22.583,1.098,0.0,0.0,0,67.62215693895627,0.6507699999999998
423,26.799,100545.0,-0.015,0.1,-1.06,-50.0,-55.0,-10.0,26.977,22.521,-10.009,0.0,0.0,0,67.88445045925917,0.5669125
424,26.7,100543.0,0.052,0.234,-0.836,-50.0,-55.0,-10.0,7.568,31.616,7.202,0.0,0.0,0,68.03685458738669,0.37817799999999996
425,26.799,100540.0,-0.146,0.303,-1.207,-50.0,-55.0,-10.0,-39.794,13.793,12.817,0.0,0.0,0,68.32162702678042,0.7849870000000001
426,26.799,100544.0,0.027,0.185,-0.703,-50.0,-55.0,-10.0,-48.339,0.976,-0.305,0.0,0.0,0,67.97188370266493,0.26458149999999997
427,26.799,100546.0,0.143,-0.064,-1.36,-50.0,-55.0,-10.0,-29.785,-11.352,0.305,0.0,0.0,0,67.79701825084939,0.9370725000000002
428,26.799,100541.0,-0.133,0.14,-0.979,-50.0,-55.0,-10.0,-22.521,-7.08,-11.108,0.0,0.0,0,68.23418964313464,0.497865
429,26.799,100540.0,-0.025,0.083,-1.007,-50.0,-55.0,-10.0,-2.014,-0.732,-2.441,0.0,0.0,0,68.32162702678042,0.5107814999999999
430,26.799,100540.0,0.068,0.045,-0.956,-50.0,-55.0,-10.0,-7.69,-8.483,-8.789,0.0,0.0,0,68.32162702678042,0.4602925
431,26.799,100544.0,0.007,0.051,-0.899,-50.0,-55.0,-10.0,-57.617,11.047,-1.647,0.0,0.0,0,67.97188370266493,0.40542550000000005
432,26.799,100548.0,-0.087,-0.01,-0.871,-50.0,-55.0,-10.0,-3.906,-8.422,-1.342,0.0,0.0,0,67.62215693895627,0.383155
433,26.799,100543.0,-0.02,-0.008,-0.994,-50.0,-55.0,-10.0,-3.845,-2.136,-0.976,0.0,0.0,0,68.05931798109738,0.49425
434,26.799,100547.0,-0.018,-0.018,-0.991,-50.0,-55.0,-10.0,-4.394,-1.037,0.305,0.0,0.0,0,67.70958707742534,0.4913645
435,26.799,100542.0,-0.016,-0.018,-0.998,-50.0,-55.0,-10.0,-4.577,-0.976,0.122,0.0,0.0,0,68.14675329458728,0.498292
436,26.799,100543.0,-0.02,-0.02,-1.003,-50.0,-55.0,-10.0,-4.76,-0.915,-0.122,0.0,0.0,0,68.05931798109738,0.5034044999999998
437,26.799,100538.0,-0.016,-0.019,-0.99,-50.0,-55.0,-10.0,-4.455,-0.915,0.061,0.0,0.0,0,68.49650489944928,0.4903585
438,26.799,100541.0,-0.014,-0.015,-0.996,-50.0,-55.0,-10.0,-4.455,-0.976,0.244,0.0,0.0,0,68.23418964313464,0.4962185
439,26.799,100545.0,-0.018,-0.018,-1.0,-50.0,-55.0,-10.0,-4.394,-1.037,0.244,0.0,0.0,0,67.88445045925917,0.500324
440,26.799,100540.0,-0.015,-0.02,-0.998,-50.0,-55.0,-10.0,-4.516,-1.098,0.244,0.0,0.0,0,68.32162702678042,0.4983145
441,26.799,100550.0,-0.016,-0.02,-0.992,-50.0,-55.0,-10.0,-4.455,-0.854,0.305,0.0,0.0,0,67.44729976680108,0.49235999999999996
442,26.799,100540.0,-0.013,-0.015,-0.993,-50.0,-55.0,-10.0,-4.455,-0.915,0.366,0.0,0.0,0,68.32162702678042,0.4932215
443,26.799,100542.0,-0.015,-0.017,-0.999,-50.0,-55.0,-10.0,-4.577,-0.854,0.366,0.0,0.0,0,68.14675329458728,0.4992575
444,26.799,100546.0,-0.015,-0.02,-0.995,-50.0,-55.0,-10.0,-4.455,-0.976,0.244,0.0,0.0,0,67.79701825084939,0.495325
445,26.799,100548.0,-0.017,-0.018,-0.996,-50.0,-55.0,-10.0,-4.638,-1.098,0.305,0.0,0.0,0,67.62215693895627,0.4963145
446,26.799,100553.0,-0.018,-0.017,-1.009,-50.0,-55.0,-10.0,-4.638,-1.159,0.244,0.0,0.0,0,67.18502177020814,0.5093469999999999
447,26.799,100547.0,-0.018,-0.017,-0.997,-50.0,-55.0,-10.0,-4.699,-0.915,0.183,0.0,0.0,0,67.70958707742534,0.497311
448,26.799,100547.0,-0.02,-0.017,-1.003,-50.0,-55.0,-10.0,-4.455,-0.915,0.183,0.0,0.0,0,67.70958707742534,0.5033489999999998
449,26.799,100550.0,-0.017,-0.018,-0.998,-50.0,-55.0,-10.0,-4.455,-1.159,0.366,0.0,0.0,0,67.44729976680108,0.4983085
450,26.799,100547.0,-0.014,-0.015,-0.995,-50.0,-55.0,-10.0,-4.394,-0.732,0.305,0.0,0.0,0,67.70958707742534,0.495223
451,26.799,100547.0,-0.014,-0.017,-0.992,-50.0,-55.0,-10.0,-4.76,-1.159,0.183,0.0,0.0,0,67.70958707742534,0.49227449999999995
452,26.799,100550.0,-0.014,-0.017,-0.99,-50.0,-55.0,-10.0,-4.455,-0.854,-0.061,0.0,0.0,0,67.44729976680108,0.49029249999999996
453,26.799,100550.0,-0.019,-0.015,-0.993,-50.0,-55.0,-10.0,-4.455,-0.854,0.488,0.0,0.0,0,67.44729976680108,0.49331749999999996
454,26.799,100545.0,-0.015,-0.016,-0.995,-50.0,-55.0,-10.0,-4.577,-0.976,0.122,0.0,0.0,0,67.88445045925917,0.495253
455,26.799,100543.0,-0.014,-0.018,-1.001,-50.0,-55.0,-10.0,-4.516,-0.854,0.183,0.0,0.0,0,68.05931798109738,0.5012604999999999
456,26.799,100545.0,-0.017,-0.02,-0.996,-50.0,-55.0,-10.0,-4.455,-0.793,0.305,0.0,0.0,0,67.88445045925917,0.49635250000000003
457,26.799,100546.0,-0.014,-0.014,-0.996,-50.0,-55.0,-10.0,-4.516,-0.854,0.183,0.0,0.0,0,67.79701825084939,0.496204
458,26.799,100547.0,-0.014,-0.017,-0.996,-50.0,-55.0,-10.0,-4.577,-1.098,0.0,0.0,0.0,0,67.70958707742534,0.4962505
459,26.799,100542.0,-0.02,-0.018,-0.996,-50.0,-55.0,-10.0,-4.394,-0.854,0.183,0.0,0.0,0,68.14675329458728,0.49637
460,26.799,100544.0,-0.013,-0.015,-1.0,-50.0,-55.0,-10.0,-4.577,-0.854,0.183,0.0,0.0,0,67.97188370266493,0.500197
461,26.799,100545.0,-0.012,-0.016,-1.0,-50.0,-55.0,-10.0,-4.516,-1.281,-0.061,0.0,0.0,0,67.88445045925917,0.5002
462,26.799,100547.0,-0.019,-0.016,-1.001,-50.0,-55.0,-10.0,-4.333,-0.915,0.305,0.0,0.0,0,67.70958707742534,0.5013089999999999
463,26.799,100540.0,-0.013,-0.02,-1.0,-50.0,-55.0,-10.0,-4.577,-1.586,0.305,0.0,0.0,0,68.32162702678042,0.5002845
464,26.799,100540.0,-0.017,-0.017,-1.002,-50.0,-55.0,-10.0,-4.394,-1.098,0.427,0.0,0.0,0,68.32162702678042,0.5022909999999999
465,26.799,100540.0,-0.023,-0.008,-0.992,-50.0,-55.0,-10.0,-4.699,-0.366,0.488,0.0,0.0,0,68.32162702678042,0.49232849999999995
466,26.799,100543.0,-0.005,-0.004,-0.956,-50.0,-55.0,-10.0,-4.15,0.061,0.305,0.0,0.0,0,68.05931798109738,0.45698849999999996
467,26.799,100541.0,-0.002,-0.012,-0.977,-50.0,-55.0,-10.0,-4.699,-0.122,0.183,0.0,0.0,0,68.23418964313464,0.4773385
468,26.799,100539.0,-0.01,-0.019,-1.002,-50.0,-55.0,-10.0,-4.333,-1.159,0.244,0.0,0.0,0,68.40906544554514,0.5022325
469,26.799,100538.0,-0.015,-0.02,-0.996,-50.0,-55.0,-10.0,-4.638,-1.037,0.183,0.0,0.0,0,68.49650489944928,0.4963205
470,26.799,100537.0,-0.017,-0.012,-0.996,-50.0,-55.0,-10.0,-4.699,-0.854,0.0,0.0,0.0,0,68.58394538851331,0.4962245
471,26.799,100538.0,-0.025,-0.013,-0.932,-50.0,-55.0,-10.0,-4.699,-1.953,0.366,0.0,0.0,0,68.49650489944928,0.434709
472,26.799,100534.0,-0.01,-0.02,-1.015,-50.0,-55.0,-10.0,-4.577,-0.061,0.0,0.0,0.0,0,68.84627306689035,0.5153624999999998
473,26.799,100540.0,-0.013,-0.008,-0.993,-50.0,-55.0,-10.0,-4.516,-1.525,0.488,0.0,0.0,0,68.32162702678042,0.493141
474,26.799,100540.0,-0.024,-0.026,-1.003,-50.0,-55.0,-10.0,-4.455,-1.647,0.366,0.0,0.0,0,68.32162702678042,0.5036304999999999
475,26.799,100545.0,-0.024,-0.027,-1.016,-50.0,-55.0,-10.0,-4.394,-1.342,0.0,0.0,0.0,0,67.88445045925917,0.5167805
476,26.799,100553.0,-0.005,-0.002,-0.996,-50.0,-55.0,-10.0,-4.577,-0.854,0.0,0.0,0.0,0,67.18502177020814,0.4960225
477,26.799,100545.0,-0.013,-0.013,-1.0,-50.0,-55.0,-10.0,-4.638,-1.098,0.183,0.0,0.0,0,67.88445045925917,0.500169
478,26.799,100546.0,-0.018,-0.032,-0.993,-50.0,-55.0,-10.0,-4.333,-0.976,0.366,0.0,0.0,0,67.79701825084939,0.4936985
479,26.799,100547.0,-0.014,-0.019,-0.997,-50.0,-55.0,-10.0,-4.699,-1.037,0.122,0.0,0.0,0,67.70958707742534,0.49728300000000003
480,26.799,100550.0,-0.006,-0.009,-1.002,-50.0,-55.0,-10.0,-4.577,-1.159,0.061,0.0,0.0,0,67.44729976680108,0.5020604999999999
481,26.799,100543.0,-0.022,-0.026,-1.019,-50.0,-55.0,-10.0,-4.455,-1.403,0.427,0.0,0.0,0,68.05931798109738,0.5197605
482,26.799,100549.0,-0.021,-0.03,-1.025,-50.0,-55.0,-10.0,-4.394,-2.075,0.366,0.0,0.0,0,67.53472783542168,0.525983
483,26.799,100553.0,-0.013,-0.012,-0.994,-50.0,-55.0,-10.0,-4.577,-0.915,0.061,0.0,0.0,0,67.18502177020814,0.4941745
484,26.799,100548.0,-0.013,-0.013,-0.993,-50.0,-55.0,-10.0,-4.638,-0.854,0.122,0.0,0.0,0,67.62215693895627,0.49319349999999995
485,26.799,100548.0,-0.015,-0.017,-1.001,-50.0,-55.0,-10.0,-4.455,-1.037,0.427,0.0,0.0,0,67.62215693895627,0.5012574999999998
486,26.799,100549.0,-0.016,-0.021,-0.992,-50.0,-55.0,-10.0,-4.76,-1.037,0.366,0.0,0.0,0,67.53472783542168,0.49238049999999994
487,26.799,100549.0,-0.013,-0.014,-0.997,-50.0,-55.0,-10.0,-4.516,-0.915,0.427,0.0,0.0,0,67.53472783542168,0.497187
488,26.799,100553.0,-0.015,-0.009,-0.996,-50.0,-55.0,-10.0,-4.333,-0.549,0.488,0.0,0.0,0,67.18502177020814,0.496161
489,26.799,100545.0,-0.014,-0.02,-1.003,-50.0,-55.0,-10.0,-4.577,-0.915,0.488,0.0,0.0,0,67.88445045925917,0.5033024999999999
490,26.799,100552.0,-0.013,-0.02,-0.995,-50.0,-55.0,-10.0,-4.394,-0.915,0.366,0.0,0.0,0,67.27244673421994,0.49529700000000004
491,26.799,100549.0,-0.014,-0.013,-0.995,-50.0,-55.0,-10.0,-4.577,-0.976,0.305,0.0,0.0,0,67.53472783542168,0.495195
492,26.799,100541.0,-0.015,-0.013,-0.998,-50.0,-55.0,-10.0,-4.516,-1.159,0.366,0.0,0.0,0,68.23418964313464,0.498199
493,26.799,100541.0,-0.013,-0.018,-0.995,-50.0,-55.0,-10.0,-4.638,-0.732,0.305,0.0,0.0,0,68.23418964313464,0.495259
494,26.799,100547.0,-0.012,-0.019,-0.997,-50.0,-55.0,-10.0,-4.455,-0.793,-0.061,0.0,0.0,0,67.70958707742534,0.497257
495,26.799,100545.0,-0.014,-0.018,-0.995,-50.0,-55.0,-10.0,-4.394,-1.098,0.0,0.0,0.0,0,67.88445045925917,0.4952725
496,26.799,100541.0,-0.012,-0.016,-0.993,-50.0,-55.0,-10.0,-4.333,-0.793,0.305,0.0,0.0,0,68.23418964313464,0.49322449999999995
497,26.799,100544.0,-0.013,-0.015,-0.985,-50.0,-55.0,-10.0,-4.577,-1.037,0.0,0.0,0.0,0,67.97188370266493,0.4853095
498,26.799,100534.0,-0.014,-0.016,-1.0,-50.0,-55.0,-10.0,-4.516,-0.976,0.244,0.0,0.0,0,68.84627306689035,0.500226
499,26.799,100545.0,-0.014,-0.017,-0.996,-50.0,-55.0,-10.0,-4.638,-0.915,0.366,0.0,0.0,0,67.88445045925917,0.4962505
500,26.799,100548.0,-0.013,-0.018,-0.997,-50.0,-55.0,-10.0,-4.455,-0.671,0.366,0.0,0.0,0,67.62215693895627,0.497251
501,26.799,100537.0,-0.013,-0.019,-0.995,-50.0,-55.0,-10.0,-4.516,-0.854,0.366,0.0,0.0,0,68.58394538851331,0.49527750000000004
502,26.799,100537.0,-0.013,-0.016,-0.995,-50.0,-55.0,-10.0,-4.272,-0.732,0.305,0.0,0.0,0,68.58394538851331,0.495225
503,26.799,100539.0,-0.013,-0.019,-0.995,-50.0,-55.0,-10.0,-4.577,-0.976,0.488,0.0,0.0,0,68.40906544554514,0.49527750000000004
504,26.799,100540.0,-0.009,-0.013,-0.99,-50.0,-55.0,-10.0,-4.333,-0.854,0.061,0.0,0.0,0,68.32162702678042,0.49017499999999997
505,26.799,100545.0,0.042,-0.004,-0.946,-50.0,-55.0,-10.0,-5.31,3.723,0.732,0.0,0.0,0,67.88445045925917,0.44834799999999997
506,26.799,100547.0,0.002,-0.012,-0.934,-50.0,-55.0,-10.0,-5.554,1.037,0.854,0.0,0.0,0,67.70958707742534,0.4362520000000001
507,26.799,100545.0,0.074,-0.014,-1.081,-50.0,-55.0,-10.0,-3.54,-1.708,0.183,0.0,0.0,0,67.88445045925917,0.5871164999999999
508,26.799,100547.0,-0.041,-0.042,-1.111,-50.0,-55.0,-10.0,-3.54,-5.31,-0.732,0.0,0.0,0,67.70958707742534,0.618883
509,26.799,100538.0,0.008,0.0,-1.041,-50.0,-55.0,-10.0,-3.173,-4.272,0.183,0.0,0.0,0,68.49650489944928,0.5418725
510,26.799,100544.0,-0.003,0.007,-0.794,-50.0,-55.0,-10.0,-5.798,2.807,0.0,0.0,0.0,0,67.97188370266493,0.31524700000000005
511,26.799,100545.0,-0.069,-0.048,-0.817,-50.0,-55.0,-10.0,-4.882,1.953,0.915,0.0,0.0,0,67.88445045925917,0.33727699999999994
512,26.799,100545.0,0.019,-0.001,-1.06,-50.0,-55.0,-10.0,-4.028,-5.004,0.061,0.0,0.0,0,67.88445045925917,0.5619810000000001
513,26.799,100551.0,0.005,0.022,-0.8,-50.0,-55.0,-10.0,-5.126,3.479,0.0,0.0,0.0,0,67.35987273308426,0.32025450000000005
514,26.799,100548.0,0.019,-0.032,-1.157,-50.0,-55.0,-10.0,-3.601,-7.446,-0.183,0.0,0.0,0,67.62215693895627,0.670017
515,26.799,100548.0,-0.021,-0.044,-1.135,-50.0,-55.0,-10.0,-3.906,-5.249,-0.549,0.0,0.0,0,67.62215693895627,0.645301
516,26.799,100548.0,-0.097,0.0,-1.028,-50.0,-55.0,-10.0,-4.577,1.77,1.037,0.0,0.0,0,67.62215693895627,0.5330965
517,26.799,100541.0,-0.067,-0.045,-0.95,-50.0,-55.0,-10.0,-4.333,-3.295,-0.549,0.0,0.0,0,68.23418964313464,0.454507
518,26.799,100546.0,0.044,0.02,-1.082,-50.0,-55.0,-10.0,-3.845,-1.77,0.854,0.0,0.0,0,67.79701825084939,0.58653
519,26.799,100545.0,-0.04,-0.054,-1.037,-50.0,-55.0,-10.0,-4.333,-5.249,-0.732,0.0,0.0,0,67.88445045925917,0.5399424999999999
520,26.799,100543.0,0.047,0.005,-1.056,-50.0,-55.0,-10.0,-3.784,-4.272,0.427,0.0,0.0,0,68.05931798109738,0.5586850000000001
521,26.799,100547.0,0.01,-0.025,-1.09,-50.0,-55.0,-10.0,-4.821,2.807,1.037,0.0,0.0,0,67.70958707742534,0.5944125000000001
522,26.799,100546.0,-0.001,0.006,-0.817,-50.0,-55.0,-10.0,-5.31,3.723,0.183,0.0,0.0,0,67.79701825084939,0.3337629999999999
523,26.799,100542.0,-0.046,-0.046,-1.114,-50.0,-55.0,-10.0,-4.272,-4.577,-0.61,0.0,0.0,0,68.14675329458728,0.6226140000000001
524,26.799,100545.0,0.008,0.016,-0.792,-50.0,-55.0,-10.0,-5.432,3.662,-0.122,0.0,0.0,0,67.88445045925917,0.313792
525,26.799,100545.0,-0.001,-0.035,-1.132,-50.0,-55.0,-10.0,-3.845,-8.056,0.0,0.0,0.0,0,67.88445045925917,0.6413249999999998
526,26.799,100547.0,-0.088,0.003,-1.057,-50.0,-55.0,-10.0,-4.394,-0.061,0.732,0.0,0.0,0,67.70958707742534,0.5625009999999999
527,26.799,100555.0,-0.003,0.014,-0.792,-50.0,-55.0,-10.0,-4.821,4.577,0.122,0.0,0.0,0,67.01017494661913,0.3137345
528,26.799,100545.0,0.04,-0.033,-1.133,-50.0,-55.0,-10.0,-4.455,-0.183,1.098,0.0,0.0,0,67.88445045925917,0.643189
529,26.799,100547.0,0.0,-0.002,-0.826,-50.0,-55.0,-10.0,-5.737,2.868,0.061,0.0,0.0,0,67.70958707742534,0.34113999999999994
530,26.799,100546.0,0.016,-0.008,-1.045,-50.0,-55.0,-10.0,-4.211,-3.479,0.549,0.0,0.0,0,67.79701825084939,0.5461725
531,26.799,100552.0,0.002,-0.001,-0.791,-50.0,-55.0,-10.0,-5.371,3.417,0.122,0.0,0.0,0,67.27244673421994,0.31284300000000004
532,26.799,100545.0,-0.04,-0.007,-0.975,-50.0,-55.0,-10.0,-4.211,-3.479,0.61,0.0,0.0,0,67.88445045925917,0.476137
533,26.799,100547.0,-0.081,-0.001,-0.931,-50.0,-55.0,-10.0,-4.272,-1.77,0.549,0.0,0.0,0,67.70958707742534,0.43666150000000004
534,26.799,100544.0,-0.067,-0.038,-0.935,-50.0,-55.0,-10.0,-5.065,-1.831,-0.366,0.0,0.0,0,67.97188370266493,0.44007900000000005
535,26.799,100550.0,-0.087,-0.009,-1.043,-50.0,-55.0,-10.0,-4.455,0.244,0.915,0.0,0.0,0,67.44729976680108,0.5477494999999999
536,26.799,100540.0,-0.116,-0.04,-0.954,-50.0,-55.0,-10.0,-5.004,-1.708,-0.183,0.0,0.0,0,68.32162702678042,0.46258599999999994
537,26.799,100546.0,0.006,0.013,-0.796,-50.0,-55.0,-10.0,-4.821,3.906,0.488,0.0,0.0,0,67.79701825084939,0.31691050000000004
538,26.799,100545.0,-0.115,-0.044,-1.044,-50.0,-55.0,-10.0,-3.417,-7.629,-0.549,0.0,0.0,0,67.88445045925917,0.5525485
539,26.799,100542.0,-0.106,0.0,-1.058,-50.0,-55.0,-10.0,-4.15,-0.976,1.037,0.0,0.0,0,68.14675329458728,0.5653
540,26.799,100549.0,-0.079,-0.043,-0.843,-50.0,-55.0,-10.0,-4.272,2.868,0.488,0.0,0.0,0,67.53472783542168,0.3593695
541,26.799,100543.0,0.045,0.013,-0.846,-50.0,-55.0,-10.0,-5.676,3.173,-0.122,0.0,0.0,0,68.05931798109738,0.35895499999999997
542,26.799,100549.0,0.011,-0.003,-0.821,-50.0,-55.0,-10.0,-4.699,2.38,0.793,0.0,0.0,0,67.53472783542168,0.3370854999999999
543,26.799,100554.0,-0.009,-0.011,-0.808,-50.0,-55.0,-10.0,-4.638,2.014,0.61,0.0,0.0,0,67.09759784101811,0.3265330000000001
544,26.799,100550.0,0.027,-0.016,-1.057,-50.0,-55.0,-10.0,-4.211,-1.647,0.732,0.0,0.0,0,67.44729976680108,0.559117
545,26.799,100549.0,-0.105,-0.015,-1.037,-50.0,-55.0,-10.0,-3.479,-6.103,-0.61,0.0,0.0,0,67.53472783542168,0.5433094999999999
546,26.799,100552.0,-0.01,-0.016,-0.966,-50.0,-55.0,-10.0,-5.981,-0.244,1.098,0.0,0.0,0,67.27244673421994,0.466756
547,26.799,100551.0,-0.083,-0.041,-1.059,-50.0,-55.0,-10.0,-3.845,-4.455,-0.427,0.0,0.0,0,67.35987273308426,0.5650255
548,26.799,100550.0,0.009,-0.029,-0.934,-50.0,-55.0,-10.0,-4.516,-0.366,1.098,0.0,0.0,0,67.44729976680108,0.43663900000000005
549,26.799,100548.0,-0.058,-0.013,-1.049,-50.0,-55.0,-10.0,-4.333,-3.356,-0.061,0.0,0.0,0,67.62215693895627,0.551967
550,26.799,100544.0,-0.028,-0.002,-1.014,-50.0,-55.0,-10.0,-4.699,-0.122,0.305,0.0,0.0,0,67.97188370266493,0.5144920000000001
551,26.799,100547.0,-0.013,-0.02,-1.004,-50.0,-55.0,-10.0,-4.333,-1.098,-0.122,0.0,0.0,0,67.70958707742534,0.5042925
552,26.799,100544.0,-0.007,-0.008,-0.994,-50.0,-55.0,-10.0,-4.638,-0.244,0.305,0.0,0.0,0,67.97188370266493,0.4940745
553,26.799,100545.0,-0.012,-0.02,-0.991,-50.0,-55.0,-10.0,-4.089,-1.525,0.0,0.0,0.0,0,67.88445045925917,0.4913125
554,26.799,100550.0,-0.015,-0.022,-0.999,-50.0,-55.0,-10.0,-4.577,-0.915,0.61,0.0,0.0,0,67.44729976680108,0.499355
555,26.799,100541.0,-0.016,-0.015,-0.996,-50.0,-55.0,-10.0,-4.577,-1.037,0.366,0.0,0.0,0,68.23418964313464,0.4962485
556,26.799,100543.0,-0.021,-0.014,-0.996,-50.0,-55.0,-10.0,-4.211,-0.976,0.244,0.0,0.0,0,68.05931798109738,0.4963265
557,26.799,100545.0,-0.016,-0.016,-0.997,-50.0,-55.0,-10.0,-4.577,-0.854,0.427,0.0,0.0,0,67.88445045925917,0.4972605
558,26.799,100543.0,-0.015,-0.018,-0.993,-50.0,-55.0,-10.0,-4.76,-0.915,0.122,0.0,0.0,0,68.05931798109738,0.493299
559,26.799,100535.0,-0.011,-0.02,-0.999,-50.0,-55.0,-10.0,-4.577,-0.976,0.122,0.0,0.0,0,68.75882947221336,0.499261
560,26.799,100543.0,-0.015,-0.018,-0.999,-50.0,-55.0,-10.0,-4.455,-0.976,0.305,0.0,0.0,0,68.05931798109738,0.499275
561,26.799,100538.0,-0.01,-0.016,-0.996,-50.0,-55.0,-10.0,-4.76,-0.854,0.061,0.0,0.0,0,68.49650489944928,0.496186
562,26.799,100540.0,-0.014,-0.016,-0.999,-50.0,-55.0,-10.0,-4.333,-1.22,0.488,0.0,0.0,0,68.32162702678042,0.4992265
563,26.799,100539.0,-0.013,-0.015,-0.992,-50.0,-55.0,-10.0,-4.577,-0.854,0.244,0.0,0.0,0,68.40906544554514,0.49222899999999997
564,26.799,100540.0,-0.015,-0.016,-0.992,-50.0,-55.0,-10.0,-4.516,-1.342,0.0,0.0,0.0,0,68.32162702678042,0.49227249999999995
565,26.799,100545.0,-0.01,-0.02,-0.993,-50.0,-55.0,-10.0,-4.455,-0.854,0.061,0.0,0.0,0,67.88445045925917,0.49327449999999995
566,26.799,100548.0,-0.009,-0.015,-0.993,-50.0,-55.0,-10.0,-4.394,-0.915,0.122,0.0,0.0,0,67.62215693895627,0.4931775
567,26.799,100544.0,-0.017,-0.017,-1.0,-50.0,-55.0,-10.0,-4.394,-1.037,0.305,0.0,0.0,0,67.97188370266493,0.500289
568,26.799,100540.0,-0.015,-0.018,-0.996,-50.0,-55.0,-10.0,-4.394,-1.037,0.366,0.0,0.0,0,68.32162702678042,0.4962825
569,26.799,100545.0,-0.015,-0.017,-0.996,-50.0,-55.0,-10.0,-4.577,-1.098,0.244,0.0,0.0,0,67.88445045925917,0.496265
570,26.799,100539.0,-0.012,-0.024,-1.027,-50.0,-55.0,-10.0,-4.455,-0.732,0.366,0.0,0.0,0,68.40906544554514,0.5277244999999999
571,26.799,100539.0,-0.012,-0.013,-0.998,-50.0,-55.0,-10.0,-4.394,-0.793,0.061,0.0,0.0,0,68.40906544554514,0.4981585
572,26.799,100538.0,-0.018,-0.02,-0.996,-50.0,-55.0,-10.0,-4.638,-0.793,0.061,0.0,0.0,0,68.49650489944928,0.49637
573,26.799,100542.0,-0.012,-0.013,-0.994,-50.0,-55.0,-10.0,-4.577,-0.915,0.244,0.0,0.0,0,68.14675329458728,0.4941745
574,26.799,100540.0,-0.013,-0.017,-1.0,-50.0,-55.0,-10.0,-4.333,-0.915,0.427,0.0,0.0,0,68.32162702678042,0.500229
575,26.799,100542.0,-0.014,-0.014,-0.998,-50.0,-55.0,-10.0,-4.333,-1.037,-0.122,0.0,0.0,0,68.14675329458728,0.498198
576,26.799,100543.0,-0.013,-0.017,-0.994,-50.0,-55.0,-10.0,-4.516,-1.098,0.183,0.0,0.0,0,68.05931798109738,0.494247
577,26.799,100543.0,-0.013,-0.017,-0.986,-50.0,-55.0,-10.0,-4.394,-0.671,0.366,0.0,0.0,0,68.05931798109738,0.48632699999999995
578,26.799,100545.0,-0.015,-0.013,-1.005,-50.0,-55.0,-10.0,-4.394,-0.549,0.305,0.0,0.0,0,67.88445045925917,0.5052094999999999
579,26.799,100537.0,-0.01,-0.015,-0.998,-50.0,-55.0,-10.0,-4.577,-0.915,0.366,0.0,0.0,0,68.58394538851331,0.4981645
580,26.799,100534.0,-0.016,-0.015,-0.991,-50.0,-55.0,-10.0,-4.638,-1.159,0.488,0.0,0.0,0,68.84627306689035,0.49128099999999997
581,26.799,100544.0,-0.017,-0.02,-0.995,-50.0,-55.0,-10.0,-4.394,-0.915,0.427,0.0,0.0,0,67.97188370266493,0.49535700000000005
582,26.799,100541.0,-0.014,-0.018,-0.993,-50.0,-55.0,-10.0,-4.638,-1.037,0.183,0.0,0.0,0,68.23418964313464,0.49328449999999996
583,26.799,100549.0,-0.013,-0.014,-0.996,-50.0,-55.0,-10.0,-4.333,-0.976,0.244,0.0,0.0,0,67.53472783542168,0.4961905
584,26.799,100545.0,-0.018,-0.015,-1.0,-50.0,-55.0,-10.0,-4.394,-1.037,0.183,0.0,0.0,0,67.88445045925917,0.5002745
585,26.799,100546.0,-0.012,-0.019,-1.0,-50.0,-55.0,-10.0,-4.638,-0.915,0.427,0.0,0.0,0,67.79701825084939,0.5002525
586,26.799,100544.0,-0.013,-0.017,-0.997,-50.0,-55.0,-10.0,-4.577,-1.098,0.0,0.0,0.0,0,67.97188370266493,0.4972335
587,26.799,100547.0,-0.009,-0.015,-0.994,-50.0,-55.0,-10.0,-4.455,-1.098,0.244,0.0,0.0,0,67.70958707742534,0.494171
588,26.799,100545.0,-0.012,-0.012,-0.991,-50.0,-55.0,-10.0,-4.455,-1.037,0.244,0.0,0.0,0,67.88445045925917,0.49118449999999997
589,26.799,100543.0,-0.012,-0.017,-1.0,-50.0,-55.0,-10.0,-4.638,-1.037,0.61,0.0,0.0,0,68.05931798109738,0.5002165
590,26.799,100549.0,-0.01,-0.014,-0.991,-50.0,-55.0,-10.0,-4.394,-1.037,0.0,0.0,0.0,0,67.53472783542168,0.4911885
591,26.799,100548.0,-0.01,-0.015,-0.998,-50.0,-55.0,-10.0,-4.516,-0.976,0.427,0.0,0.0,0,67.62215693895627,0.4981645
592,26.799,100541.0,-0.011,-0.018,-0.996,-50.0,-55.0,-10.0,-4.516,-1.098,0.122,0.0,0.0,0,68.23418964313464,0.4962305
593,26.799,100540.0,-0.011,-0.016,-0.995,-50.0,-55.0,-10.0,-4.455,-0.976,0.305,0.0,0.0,0,68.32162702678042,0.495201
594,26.799,100547.0,-0.016,-0.016,-0.998,-50.0,-55.0,-10.0,-4.333,-0.854,0.061,0.0,0.0,0,67.70958707742534,0.498258
595,26.799,100543.0,-0.01,-0.018,-0.997,-50.0,-55.0,-10.0,-4.333,-1.037,0.061,0.0,0.0,0,68.05931798109738,0.4972165
596,26.799,100538.0,-0.016,-0.015,-0.992,-50.0,-55.0,-10.0,-4.577,-0.915,0.305,0.0,0.0,0,68.49650489944928,0.49227249999999995
597,26.799,100535.0,-0.01,-0.015,-0.994,-50.0,-55.0,-10.0,-4.455,-0.976,0.244,0.0,0.0,0,68.75882947221336,0.4941805
598,26.799,100537.0,-0.012,-0.016,-1.003,-50.0,-55.0,-10.0,-4.455,-0.732,0.305,0.0,0.0,0,68.58394538851331,0.5032044999999998
599,26.799,100539.0,-0.014,-0.023,-0.992,-50.0,-55.0,-10.0,-4.394,-1.098,0.488,0.0,0.0,0,68.40906544554514,0.49239449999999996
600,26.799,100537.0,-0.013,-0.015,-0.992,-50.0,-55.0,-10.0,-4.394,-0.854,-0.244,0.0,0.0,0,68.58394538851331,0.49222899999999997
