No,Temperature,Pressure,accelX,accelY,accelZ,magX,magY,magZ,gyroX,gyroY,gyroZ,gps_latitude,gps_longtitude,gps_time,highte,accel
1,26.6,101181.0,-0.003,-0.011,-0.992,-50.0,-55.0,-10.0,-4.333,-0.915,0.122,0.0,0.0,0,12.477318755603703,0.49209699999999995
2,26.6,101181.0,-0.002,-0.01,-0.993,-50.0,-55.0,-10.0,-4.699,-0.854,0.305,0.0,0.0,0,12.477318755603703,0.4930765
3,26.6,101182.0,-0.005,-0.005,-0.989,-50.0,-55.0,-10.0,-4.638,-0.793,0.244,0.0,0.0,0,12.39059784560745,0.4890855
4,26.7,101181.0,-0.005,-0.009,-0.991,-50.0,-55.0,-10.0,-4.577,-0.793,0.183,0.0,0.0,0,12.481481330668123,0.4910935
5,26.7,101183.0,-0.008,-0.012,-0.99,-50.0,-55.0,-10.0,-4.699,-1.159,0.305,0.0,0.0,0,12.307982668964357,0.490154
6,26.7,101179.0,-0.006,-0.015,-0.994,-50.0,-55.0,-10.0,-4.394,-0.61,0.244,0.0,0.0,0,12.654984074242627,0.4941485
7,26.7,101187.0,-0.009,-0.013,-0.992,-50.0,-55.0,-10.0,-4.333,-0.854,0.427,0.0,0.0,0,11.96099759050324,0.49215699999999996
8,26.7,101182.0,-0.007,-0.012,-0.989,-50.0,-55.0,-10.0,-4.272,-0.915,0.488,0.0,0.0,0,12.394731489592639,0.489157
9,26.7,101197.0,-0.006,-0.01,-0.995,-50.0,-55.0,-10.0,-4.333,-0.976,0.671,0.0,0.0,0,11.09360631492471,0.49508050000000003
10,26.7,101190.0,-0.006,-0.009,-0.994,-50.0,-55.0,-10.0,-4.577,-0.854,0.305,0.0,0.0,0,11.700769495285144,0.49407650000000003
11,26.7,101189.0,-0.01,-0.006,-0.986,-50.0,-55.0,-10.0,-4.516,-0.732,0.305,0.0,0.0,0,11.78751117338738,0.486166
12,26.7,101188.0,-0.007,-0.007,-0.988,-50.0,-55.0,-10.0,-4.394,-0.976,0.244,0.0,0.0,0,11.874253871793412,0.488121
13,26.7,101188.0,-0.003,-0.012,-0.995,-50.0,-55.0,-10.0,-4.516,-0.976,0.244,0.0,0.0,0,11.874253871793412,0.495089
14,26.7,101185.0,-0.01,-0.009,-0.989,-50.0,-55.0,-10.0,-4.211,-0.915,0.427,0.0,0.0,0,12.134488088967439,0.489151
15,26.7,101186.0,-0.009,-0.011,-0.998,-50.0,-55.0,-10.0,-4.516,-0.854,0.305,0.0,0.0,0,12.047742329557835,0.498103
16,26.7,101190.0,-0.01,-0.013,-0.988,-50.0,-55.0,-10.0,-4.699,-0.976,0.244,0.0,0.0,0,11.700769495285144,0.4882065
17,26.7,101192.0,-0.006,-0.01,-0.991,-50.0,-55.0,-10.0,-4.272,-0.793,0.244,0.0,0.0,0,11.527289199869141,0.4911085
18,26.7,101184.0,-0.013,-0.004,-0.966,-50.0,-55.0,-10.0,-4.455,-1.647,0.244,0.0,0.0,0,12.221234868762783,0.4666705
19,26.7,101180.0,-0.008,-0.009,-0.992,-50.0,-55.0,-10.0,-4.516,-0.671,0.305,0.0,0.0,0,12.56823219221129,0.49210449999999994
20,26.799,101190.0,-0.009,-0.015,-0.988,-50.0,-55.0,-10.0,-4.455,-0.793,0.0,0.0,0.0,0,11.70463268081135,0.488225
21,26.799,101185.0,-0.008,-0.01,-0.992,-50.0,-55.0,-10.0,-4.516,-0.732,0.427,0.0,0.0,0,12.138494473228928,0.492114
22,26.799,101192.0,-0.007,-0.011,-0.992,-50.0,-55.0,-10.0,-4.455,-0.732,0.305,0.0,0.0,0,11.531095108259294,0.49211699999999997
23,26.799,101187.0,-0.011,-0.01,-0.998,-50.0,-55.0,-10.0,-4.028,-0.793,0.305,0.0,0.0,0,11.964946694259984,0.4981125
24,26.799,101186.0,-0.005,-0.012,-0.99,-50.0,-55.0,-10.0,-4.516,-0.732,0.183,0.0,0.0,0,12.051720073398508,0.4901345
25,26.799,101187.0,-0.003,-0.012,-0.991,-50.0,-55.0,-10.0,-4.516,-0.793,0.305,0.0,0.0,0,11.964946694259984,0.49111699999999997
26,26.799,101189.0,-0.005,-0.011,-0.993,-50.0,-55.0,-10.0,-4.516,-1.037,0.122,0.0,0.0,0,11.791402997986898,0.49309749999999997
27,26.799,101187.0,-0.01,-0.008,-0.991,-50.0,-55.0,-10.0,-4.455,-1.037,0.305,0.0,0.0,0,11.964946694259984,0.4911225
28,26.799,101184.0,-0.007,-0.012,-0.994,-50.0,-55.0,-10.0,-4.577,-0.915,0.244,0.0,0.0,0,12.225269893781984,0.4941145
29,26.799,101184.0,-0.023,0.0,-0.917,-50.0,-55.0,-10.0,-5.065,-4.516,0.305,0.0,0.0,0,12.225269893781984,0.42070900000000006
30,26.799,101194.0,-0.002,-0.01,-0.988,-50.0,-55.0,-10.0,-4.76,-0.488,0.183,0.0,0.0,0,11.357561617962494,0.488124
31,26.799,101185.0,-0.004,-0.01,-0.993,-50.0,-55.0,-10.0,-4.211,-0.976,0.427,0.0,0.0,0,12.138494473228928,0.4930825
32,26.799,101186.0,-0.009,-0.012,-0.993,-50.0,-55.0,-10.0,-4.333,-0.854,0.305,0.0,0.0,0,12.051720073398508,0.493137
33,26.799,101186.0,-0.009,-0.011,-0.997,-50.0,-55.0,-10.0,-4.577,-0.915,0.305,0.0,0.0,0,12.051720073398508,0.49710550000000003
34,26.799,101185.0,-0.007,-0.012,-0.986,-50.0,-55.0,-10.0,-4.638,-1.342,0.244,0.0,0.0,0,12.138494473228928,0.4861945
35,26.799,101180.0,-0.004,-0.01,-0.99,-50.0,-55.0,-10.0,-4.516,-1.281,0.244,0.0,0.0,0,12.572381783630428,0.490108
36,26.799,101187.0,-0.003,-0.014,-0.988,-50.0,-55.0,-10.0,-4.394,-1.22,0.183,0.0,0.0,0,11.964946694259984,0.4881745
37,26.799,101192.0,-0.006,-0.014,-0.992,-50.0,-55.0,-10.0,-4.394,-1.098,0.305,0.0,0.0,0,11.531095108259294,0.492148
38,26.799,101185.0,-0.006,-0.011,-0.988,-50.0,-55.0,-10.0,-4.577,-1.159,0.183,0.0,0.0,0,12.138494473228928,0.4881505
39,26.799,101181.0,-0.006,-0.009,-0.996,-50.0,-55.0,-10.0,-4.516,-0.732,0.549,0.0,0.0,0,12.485602279981899,0.4960665
40,26.799,101185.0,-0.002,-0.009,-0.986,-50.0,-55.0,-10.0,-4.455,-1.22,0.305,0.0,0.0,0,12.138494473228928,0.4861405
41,26.799,101178.0,-0.004,-0.011,-0.99,-50.0,-55.0,-10.0,-4.394,-1.159,0.244,0.0,0.0,0,12.745943853433527,0.4901185
42,26.799,101187.0,-0.005,-0.012,-0.992,-50.0,-55.0,-10.0,-4.272,-0.854,0.122,0.0,0.0,0,11.964946694259984,0.49211649999999996
43,26.799,101175.0,-0.007,-0.011,-0.99,-50.0,-55.0,-10.0,-4.455,-0.854,0.366,0.0,0.0,0,13.006294614761904,0.490135
44,26.799,101178.0,-0.006,-0.011,-0.994,-50.0,-55.0,-10.0,-4.516,-0.915,0.244,0.0,0.0,0,12.745943853433527,0.4940965
45,26.799,101176.0,0.0,-0.007,-0.99,-50.0,-55.0,-10.0,-4.455,-1.037,0.244,0.0,0.0,0,12.919510006741957,0.49007449999999997
46,26.799,101189.0,-0.004,-0.01,-0.993,-50.0,-55.0,-10.0,-4.516,-0.976,0.061,0.0,0.0,0,11.791402997986898,0.4930825
47,26.799,101184.0,-0.004,-0.01,-0.995,-50.0,-55.0,-10.0,-4.516,-1.037,0.305,0.0,0.0,0,12.225269893781984,0.4950705
48,26.799,101188.0,-0.006,-0.009,-0.992,-50.0,-55.0,-10.0,-4.455,-0.854,0.244,0.0,0.0,0,11.878174335803108,0.4920905
49,26.799,101182.0,-0.007,-0.012,-0.999,-50.0,-55.0,-10.0,-4.333,-0.976,0.183,0.0,0.0,0,12.398823797137977,0.499097
50,26.799,101183.0,-0.005,-0.011,-0.99,-50.0,-55.0,-10.0,-4.394,-0.915,0.061,0.0,0.0,0,12.31204633507817,0.490123
51,26.799,101185.0,-0.003,-0.008,-0.995,-50.0,-55.0,-10.0,-4.333,-0.793,0.305,0.0,0.0,0,12.138494473228928,0.495049
52,26.799,101190.0,-0.005,-0.012,-0.988,-50.0,-55.0,-10.0,-4.638,-0.793,0.183,0.0,0.0,0,11.70463268081135,0.4881565
53,26.799,101189.0,0.0,-0.01,-0.997,-50.0,-55.0,-10.0,-4.516,-0.976,0.183,0.0,0.0,0,11.791402997986898,0.4970545
54,26.799,101190.0,-0.003,-0.01,-0.994,-50.0,-55.0,-10.0,-4.455,-1.098,0.244,0.0,0.0,0,11.70463268081135,0.4940725
55,26.799,101188.0,-0.001,-0.008,-0.993,-50.0,-55.0,-10.0,-4.455,-0.976,0.122,0.0,0.0,0,11.878174335803108,0.49305699999999997
56,26.799,101186.0,-0.004,-0.014,-0.991,-50.0,-55.0,-10.0,-4.516,-0.854,0.122,0.0,0.0,0,12.051720073398508,0.4911465
57,26.799,101184.0,-0.004,-0.009,-0.994,-50.0,-55.0,-10.0,-4.577,-0.793,0.366,0.0,0.0,0,12.225269893781984,0.4940665
58,26.799,101189.0,-0.002,-0.011,-0.989,-50.0,-55.0,-10.0,-4.272,-0.915,0.488,0.0,0.0,0,11.791402997986898,0.48912300000000003
59,26.799,101187.0,-0.004,-0.011,-0.986,-50.0,-55.0,-10.0,-4.516,-1.098,0.366,0.0,0.0,0,11.964946694259984,0.4861665
60,26.799,101187.0,-0.008,-0.013,-0.992,-50.0,-55.0,-10.0,-4.577,-1.098,0.183,0.0,0.0,0,11.964946694259984,0.4921485
61,26.799,101187.0,-0.007,-0.011,-0.996,-50.0,-55.0,-10.0,-4.394,-1.098,0.366,0.0,0.0,0,11.964946694259984,0.496093
62,26.799,101184.0,-0.006,-0.014,-0.99,-50.0,-55.0,-10.0,-4.333,-0.854,0.244,0.0,0.0,0,12.225269893781984,0.490166
63,26.799,101182.0,-0.002,-0.01,-0.995,-50.0,-55.0,-10.0,-4.638,-0.854,0.488,0.0,0.0,0,12.398823797137977,0.4950645
64,26.799,101188.0,-0.002,-0.011,-0.993,-50.0,-55.0,-10.0,-4.455,-0.671,0.366,0.0,0.0,0,11.878174335803108,0.493087
65,26.799,101183.0,-0.004,-0.011,-0.991,-50.0,-55.0,-10.0,-4.638,-0.854,0.244,0.0,0.0,0,12.31204633507817,0.491109
66,26.799,101179.0,-0.006,-0.009,-0.996,-50.0,-55.0,-10.0,-4.394,-1.037,0.244,0.0,0.0,0,12.659162308104058,0.4960665
67,26.799,101182.0,-0.006,-0.01,-0.996,-50.0,-55.0,-10.0,-4.394,-0.915,0.366,0.0,0.0,0,12.398823797137977,0.496076
68,26.799,101183.0,-0.007,-0.013,-0.99,-50.0,-55.0,-10.0,-4.516,-0.915,0.488,0.0,0.0,0,12.31204633507817,0.490159
69,26.799,101182.0,-0.007,-0.01,-0.996,-50.0,-55.0,-10.0,-4.577,-0.915,0.244,0.0,0.0,0,12.398823797137977,0.4960825
70,26.799,101186.0,-0.004,-0.009,-0.992,-50.0,-55.0,-10.0,-4.455,-0.854,0.244,0.0,0.0,0,12.051720073398508,0.4920805
71,26.799,101184.0,-0.004,-0.008,-0.986,-50.0,-55.0,-10.0,-4.638,-0.915,0.366,0.0,0.0,0,12.225269893781984,0.48613799999999996
72,26.799,101186.0,-0.009,-0.012,-0.997,-50.0,-55.0,-10.0,-4.455,-0.976,0.122,0.0,0.0,0,12.051720073398508,0.49711700000000003
73,26.799,101183.0,-0.009,-0.008,-0.999,-50.0,-55.0,-10.0,-4.272,-0.671,0.366,0.0,0.0,0,12.31204633507817,0.499073
74,26.799,101185.0,-0.006,-0.008,-0.987,-50.0,-55.0,-10.0,-4.516,-0.854,0.122,0.0,0.0,0,12.138494473228928,0.48713449999999997
75,26.799,101181.0,-0.008,-0.012,-0.994,-50.0,-55.0,-10.0,-4.577,-1.037,0.366,0.0,0.0,0,12.485602279981899,0.494122
76,26.799,101186.0,-0.006,-0.014,-1.024,-50.0,-55.0,-10.0,-4.211,-1.831,0.366,0.0,0.0,0,12.051720073398508,0.524404
77,26.799,101184.0,-0.013,-0.015,-0.995,-50.0,-55.0,-10.0,-4.15,-1.708,0.122,0.0,0.0,0,12.225269893781984,0.4952095
78,26.799,101182.0,-0.012,-0.006,-0.895,-50.0,-55.0,-10.0,-4.821,0.488,0.305,0.0,0.0,0,12.398823797137977,0.4006025
79,26.799,101182.0,0.009,-0.005,-1.035,-50.0,-55.0,-10.0,-4.821,-0.61,0.244,0.0,0.0,0,12.398823797137977,0.5356654999999999
80,26.799,101184.0,0.0,-0.038,-1.165,-50.0,-55.0,-10.0,-2.685,-4.089,0.549,0.0,0.0,0,12.225269893781984,0.6793345000000001
81,26.799,101182.0,-0.031,0.006,-0.891,-50.0,-55.0,-10.0,-5.065,-1.22,-0.122,0.0,0.0,0,12.398823797137977,0.39743900000000004
82,26.799,101188.0,0.069,-0.026,-1.287,-50.0,-55.0,-10.0,-2.807,-1.892,0.976,0.0,0.0,0,11.878174335803108,0.8309029999999998
83,26.799,101192.0,-0.091,0.023,-0.961,-50.0,-55.0,-10.0,-3.112,-5.371,-0.427,0.0,0.0,0,11.531095108259294,0.46616549999999995
84,26.799,101185.0,-0.009,0.035,-0.973,-50.0,-55.0,-10.0,-3.662,-4.15,-0.732,0.0,0.0,0,12.138494473228928,0.4740175
85,26.799,101186.0,-0.003,-0.026,-0.712,-50.0,-55.0,-10.0,-6.103,1.831,0.183,0.0,0.0,0,12.051720073398508,0.2538145
86,26.799,101186.0,-0.084,-0.02,-0.657,-50.0,-55.0,-10.0,-5.371,-1.647,-0.732,0.0,0.0,0,12.051720073398508,0.21955250000000004
87,26.799,101186.0,-0.015,0.022,-1.328,-50.0,-55.0,-10.0,-2.563,-1.77,0.854,0.0,0.0,0,12.051720073398508,0.8821465000000002
88,26.799,101190.0,0.078,-0.026,-0.91,-50.0,-55.0,-10.0,-6.164,3.417,0.305,0.0,0.0,0,11.70463268081135,0.41743
89,26.799,101194.0,-0.023,-0.014,-0.604,-50.0,-55.0,-10.0,-4.882,-1.953,-0.732,0.0,0.0,0,11.357561617962494,0.18277049999999997
90,26.799,101191.0,0.222,-0.03,-1.445,-50.0,-55.0,-10.0,-4.089,1.159,1.708,0.0,0.0,0,11.61786338424573,1.0691045
91,26.799,101186.0,-0.166,-0.023,-0.72,-50.0,-55.0,-10.0,-4.882,-3.417,-0.854,0.0,0.0,0,12.051720073398508,0.2732425
92,26.799,101185.0,0.082,-0.039,-1.115,-50.0,-55.0,-10.0,-5.493,3.845,1.281,0.0,0.0,0,12.138494473228928,0.625735
93,26.799,101187.0,-0.08,0.026,-0.98,-50.0,-55.0,-10.0,-3.051,-6.958,-1.098,0.0,0.0,0,11.964946694259984,0.48373799999999995
94,26.799,101188.0,-0.118,0.017,-1.197,-50.0,-55.0,-10.0,-2.258,-6.896,-0.488,0.0,0.0,0,11.878174335803108,0.7235110000000001
95,26.799,101183.0,0.157,-0.032,-0.986,-50.0,-55.0,-10.0,-6.53,4.211,0.793,0.0,0.0,0,12.31204633507817,0.49893449999999995
96,26.799,101186.0,-0.155,0.03,-1.046,-50.0,-55.0,-10.0,-1.953,-6.042,-0.244,0.0,0.0,0,12.051720073398508,0.5595205000000001
97,26.799,101187.0,-0.001,-0.019,-0.682,-50.0,-55.0,-10.0,-5.737,0.671,-0.488,0.0,0.0,0,11.964946694259984,0.23274300000000003
98,26.799,101186.0,-0.022,-0.03,-1.284,-50.0,-55.0,-10.0,-3.906,1.708,1.586,0.0,0.0,0,12.051720073398508,0.8250200000000001
99,26.799,101188.0,0.03,-0.001,-0.743,-50.0,-55.0,-10.0,-6.042,1.953,0.061,0.0,0.0,0,11.878174335803108,0.276475
100,26.799,101186.0,-0.041,-0.017,-1.3,-50.0,-55.0,-10.0,-4.15,2.624,1.708,0.0,0.0,0,12.051720073398508,0.8459850000000001
101,26.799,101189.0,-0.105,0.052,-1.005,-50.0,-55.0,-10.0,-2.746,-6.713,-0.915,0.0,0.0,0,11.791402997986898,0.5118769999999999
102,26.799,101192.0,-0.026,-0.012,-0.583,-50.0,-55.0,-10.0,-5.92,1.586,0.122,0.0,0.0,0,11.531095108259294,0.17035449999999996
103,26.799,101188.0,-0.096,-0.021,-0.662,-50.0,-55.0,-10.0,-4.089,-7.08,-1.098,0.0,0.0,0,11.878174335803108,0.22395050000000002
104,26.799,101191.0,0.182,-0.029,-1.011,-50.0,-55.0,-10.0,-6.896,5.859,1.403,0.0,0.0,0,11.61786338424573,0.5280429999999999
105,26.799,101182.0,-0.007,0.003,-1.358,-50.0,-55.0,-10.0,-2.502,-1.281,0.793,0.0,0.0,0,12.398823797137977,0.9221110000000001
106,26.799,101181.0,-0.168,0.005,-0.826,-50.0,-55.0,-10.0,-3.601,-7.812,-0.854,0.0,0.0,0,12.485602279981899,0.3552624999999999
107,26.799,101182.0,0.005,0.0,-0.648,-50.0,-55.0,-10.0,-5.493,0.61,0.061,0.0,0.0,0,12.398823797137977,0.2099645
108,26.799,101184.0,-0.076,0.031,-1.218,-50.0,-55.0,-10.0,-2.319,-3.845,0.366,0.0,0.0,0,12.225269893781984,0.7451304999999999
109,26.799,101184.0,-0.099,-0.037,-0.561,-50.0,-55.0,-10.0,-4.211,-3.479,-0.915,0.0,0.0,0,12.225269893781984,0.16294550000000005
110,26.799,101192.0,0.145,-0.036,-0.972,-50.0,-55.0,-10.0,-6.835,4.516,0.854,0.0,0.0,0,11.531095108259294,0.4835525
111,26.799,101194.0,-0.026,-0.056,-1.293,-50.0,-55.0,-10.0,-5.126,4.15,1.708,0.0,0.0,0,11.357561617962494,0.8378304999999999
112,26.799,101184.0,0.052,-0.002,-0.678,-50.0,-55.0,-10.0,-5.92,2.075,-0.122,0.0,0.0,0,12.225269893781984,0.231196
113,26.799,101189.0,0.196,-0.073,-1.401,-50.0,-55.0,-10.0,-4.76,3.417,1.647,0.0,0.0,0,11.791402997986898,1.003273
114,26.799,101185.0,-0.014,0.014,-1.294,-50.0,-55.0,-10.0,-2.319,-6.53,0.122,0.0,0.0,0,12.138494473228928,0.837414
115,26.799,101185.0,-0.183,0.0,-0.877,-50.0,-55.0,-10.0,-3.54,-7.446,-1.159,0.0,0.0,0,12.138494473228928,0.40130899999999997
116,26.799,101184.0,0.06,-0.061,-1.37,-50.0,-55.0,-10.0,-3.906,1.831,1.281,0.0,0.0,0,12.225269893781984,0.9421105000000001
117,26.799,101184.0,0.036,0.043,-1.185,-50.0,-55.0,-10.0,-2.014,-4.394,-0.061,0.0,0.0,0,12.225269893781984,0.703685
118,26.799,101185.0,-0.175,-0.041,-0.976,-50.0,-55.0,-10.0,-2.136,-7.69,0.366,0.0,0.0,0,12.138494473228928,0.49244099999999996
119,26.799,101186.0,-0.205,-0.058,-0.936,-50.0,-55.0,-10.0,-2.197,-4.333,0.0,0.0,0.0,0,12.051720073398508,0.46074250000000005
120,26.799,101181.0,-0.061,-0.042,-1.025,-50.0,-55.0,-10.0,-3.112,-2.197,0.0,0.0,0.0,0,12.485602279981899,0.5280549999999999
121,26.799,101181.0,-0.029,-0.02,-1.049,-50.0,-55.0,-10.0,-2.929,-4.089,0.061,0.0,0.0,0,12.485602279981899,0.550821
122,26.799,101179.0,-0.014,-0.01,-1.056,-50.0,-55.0,-10.0,-3.417,-3.906,0.183,0.0,0.0,0,12.659162308104058,0.5577160000000001
123,26.799,101181.0,-0.005,-0.001,-0.971,-50.0,-55.0,-10.0,-4.577,-0.671,0.244,0.0,0.0,0,12.485602279981899,0.47143349999999995
124,26.799,101181.0,-0.033,-0.018,-1.019,-50.0,-55.0,-10.0,-4.699,-0.366,0.305,0.0,0.0,0,12.485602279981899,0.519887
125,26.799,101182.0,-0.012,-0.021,-0.985,-50.0,-55.0,-10.0,-4.882,-0.488,0.549,0.0,0.0,0,12.398823797137977,0.485405
126,26.799,101186.0,-0.011,-0.009,-0.996,-50.0,-55.0,-10.0,-4.577,-0.854,0.427,0.0,0.0,0,12.051720073398508,0.496109
127,26.799,101184.0,-0.006,-0.012,-1.0,-50.0,-55.0,-10.0,-4.333,-1.098,0.122,0.0,0.0,0,12.225269893781984,0.50009
128,26.799,101186.0,-0.007,-0.012,-1.001,-50.0,-55.0,-10.0,-4.516,-1.22,0.122,0.0,0.0,0,12.051720073398508,0.5010969999999999
129,26.799,101188.0,-0.007,-0.01,-0.997,-50.0,-55.0,-10.0,-4.272,-1.22,0.305,0.0,0.0,0,11.878174335803108,0.497079
130,26.799,101185.0,-0.004,-0.012,-0.992,-50.0,-55.0,-10.0,-4.272,-1.098,0.305,0.0,0.0,0,12.138494473228928,0.492112
131,26.799,101181.0,-0.008,-0.008,-1.0,-50.0,-55.0,-10.0,-4.577,-0.915,0.122,0.0,0.0,0,12.485602279981899,0.500064
132,26.799,101184.0,-0.007,-0.01,-0.991,-50.0,-55.0,-10.0,-4.577,-0.793,0.427,0.0,0.0,0,12.225269893781984,0.49111499999999997
133,26.799,101191.0,-0.006,-0.011,-1.0,-50.0,-55.0,-10.0,-4.516,-0.976,0.183,0.0,0.0,0,11.61786338424573,0.5000785
134,26.799,101184.0,-0.005,-0.009,-0.99,-50.0,-55.0,-10.0,-4.211,-1.159,0.061,0.0,0.0,0,12.225269893781984,0.490103
135,26.799,101181.0,-0.005,-0.009,-0.994,-50.0,-55.0,-10.0,-4.638,-1.037,0.0,0.0,0.0,0,12.485602279981899,0.49407100000000004
136,26.799,101183.0,-0.007,-0.011,-0.991,-50.0,-55.0,-10.0,-4.577,-0.793,0.183,0.0,0.0,0,12.31204633507817,0.4911255
137,26.799,101186.0,-0.01,-0.009,-0.998,-50.0,-55.0,-10.0,-4.455,-0.976,0.366,0.0,0.0,0,12.051720073398508,0.4980925
138,26.799,101189.0,-0.005,-0.009,-0.992,-50.0,-55.0,-10.0,-4.455,-0.976,0.549,0.0,0.0,0,11.791402997986898,0.492085
139,26.799,101194.0,0.0,-0.012,-0.993,-50.0,-55.0,-10.0,-4.76,-1.037,0.366,0.0,0.0,0,11.357561617962494,0.4930965
140,26.799,101194.0,-0.004,-0.01,-0.995,-50.0,-55.0,-10.0,-4.882,-0.976,0.305,0.0,0.0,0,11.357561617962494,0.4950705
141,26.799,101181.0,-0.006,-0.013,-0.989,-50.0,-55.0,-10.0,-4.699,-0.976,0.366,0.0,0.0,0,12.485602279981899,0.489163
142,26.799,101182.0,-0.006,-0.013,-0.991,-50.0,-55.0,-10.0,-4.577,-0.671,0.244,0.0,0.0,0,12.398823797137977,0.491143
143,26.799,101195.0,-0.003,-0.007,-0.992,-50.0,-55.0,-10.0,-4.455,-0.915,0.488,0.0,0.0,0,11.270796403611149,0.49206099999999997
144,26.799,101185.0,-0.006,-0.013,-0.99,-50.0,-55.0,-10.0,-4.455,-1.037,0.183,0.0,0.0,0,12.138494473228928,0.4901525
145,26.799,101184.0,-0.005,-0.01,-0.991,-50.0,-55.0,-10.0,-4.577,-0.854,0.427,0.0,0.0,0,12.225269893781984,0.491103
146,26.799,101180.0,-0.003,-0.012,-0.999,-50.0,-55.0,-10.0,-4.638,-1.037,0.427,0.0,0.0,0,12.572381783630428,0.499077
147,26.799,101191.0,-0.006,-0.008,-0.992,-50.0,-55.0,-10.0,-4.577,-0.976,0.122,0.0,0.0,0,11.61786338424573,0.49208199999999996
148,26.799,101195.0,-0.004,-0.009,-0.993,-50.0,-55.0,-10.0,-4.333,-0.854,0.0,0.0,0.0,0,11.270796403611149,0.493073
149,26.799,101188.0,-0.005,-0.011,-0.987,-50.0,-55.0,-10.0,-4.089,-1.159,0.305,0.0,0.0,0,11.878174335803108,0.48715749999999997
150,26.799,101184.0,-0.006,-0.01,-0.991,-50.0,-55.0,-10.0,-4.394,-0.793,0.305,0.0,0.0,0,12.225269893781984,0.4911085
151,26.799,101183.0,-0.006,-0.006,-0.994,-50.0,-55.0,-10.0,-4.333,-0.854,0.488,0.0,0.0,0,12.31204633507817,0.494054
152,26.799,101191.0,-0.006,-0.008,-0.991,-50.0,-55.0,-10.0,-4.211,-1.464,0.305,0.0,0.0,0,11.61786338424573,0.4910905
153,26.799,101183.0,-0.005,-0.005,-0.992,-50.0,-55.0,-10.0,-4.638,-1.098,0.305,0.0,0.0,0,12.31204633507817,0.49205699999999997
154,26.799,101179.0,-0.004,-0.01,-0.996,-50.0,-55.0,-10.0,-4.455,-0.976,0.244,0.0,0.0,0,12.659162308104058,0.496066
155,26.799,101185.0,-0.004,-0.011,-0.992,-50.0,-55.0,-10.0,-4.333,-1.098,0.244,0.0,0.0,0,12.138494473228928,0.4921005
156,26.799,101183.0,-0.005,-0.007,-0.993,-50.0,-55.0,-10.0,-4.394,-0.915,0.122,0.0,0.0,0,12.31204633507817,0.4930615
157,26.799,101179.0,-0.003,-0.009,-0.993,-50.0,-55.0,-10.0,-4.455,-0.915,0.427,0.0,0.0,0,12.659162308104058,0.4930695
158,26.799,101180.0,-0.006,-0.009,-0.992,-50.0,-55.0,-10.0,-4.577,-0.915,0.183,0.0,0.0,0,12.572381783630428,0.4920905
159,26.799,101182.0,-0.003,-0.012,-0.989,-50.0,-55.0,-10.0,-4.516,-0.976,0.183,0.0,0.0,0,12.398823797137977,0.489137
160,26.799,101186.0,-0.002,-0.012,-0.992,-50.0,-55.0,-10.0,-4.577,-1.037,0.305,0.0,0.0,0,12.051720073398508,0.492106
161,26.799,101189.0,-0.006,-0.007,-0.99,-50.0,-55.0,-10.0,-4.455,-0.61,0.061,0.0,0.0,0,11.791402997986898,0.4900925
162,26.799,101190.0,-0.008,-0.009,-0.99,-50.0,-55.0,-10.0,-4.394,-0.976,0.488,0.0,0.0,0,11.70463268081135,0.49012249999999996
163,26.799,101193.0,-0.008,-0.015,-0.994,-50.0,-55.0,-10.0,-4.638,-1.098,0.427,0.0,0.0,0,11.444327852841793,0.4941625
164,26.799,101193.0,-0.001,-0.008,-0.989,-50.0,-55.0,-10.0,-4.821,-0.915,0.427,0.0,0.0,0,11.444327852841793,0.489093
165,26.799,101191.0,-0.002,-0.007,-0.991,-50.0,-55.0,-10.0,-4.455,-0.915,0.366,0.0,0.0,0,11.61786338424573,0.491067
166,26.799,101181.0,0.001,-0.009,-0.991,-50.0,-55.0,-10.0,-4.455,-0.854,0.122,0.0,0.0,0,12.485602279981899,0.4910815
167,26.799,101193.0,-0.007,-0.012,-0.995,-50.0,-55.0,-10.0,-4.516,-0.854,0.427,0.0,0.0,0,11.444327852841793,0.495109
168,26.799,101180.0,-0.005,-0.011,-0.997,-50.0,-55.0,-10.0,-4.638,-0.915,0.305,0.0,0.0,0,12.572381783630428,0.4970775
169,26.799,101178.0,-0.005,-0.01,-0.993,-50.0,-55.0,-10.0,-4.516,-0.915,0.427,0.0,0.0,0,12.745943853433527,0.493087
170,26.799,101179.0,-0.002,-0.011,-0.991,-50.0,-55.0,-10.0,-4.577,-0.793,0.183,0.0,0.0,0,12.659162308104058,0.491103
171,26.799,101175.0,-0.003,-0.008,-0.991,-50.0,-55.0,-10.0,-4.394,-0.732,0.122,0.0,0.0,0,13.006294614761904,0.491077
172,26.799,101186.0,-0.003,-0.011,-0.996,-50.0,-55.0,-10.0,-4.455,-0.915,0.305,0.0,0.0,0,12.051720073398508,0.496073
173,26.799,101178.0,-0.005,-0.01,-0.993,-50.0,-55.0,-10.0,-4.699,-0.854,0.366,0.0,0.0,0,12.745943853433527,0.493087
174,26.799,101185.0,-0.005,-0.009,-0.994,-50.0,-55.0,-10.0,-4.272,-0.976,0.183,0.0,0.0,0,12.138494473228928,0.49407100000000004
175,26.799,101186.0,-0.002,-0.01,-0.995,-50.0,-55.0,-10.0,-4.15,-0.915,0.305,0.0,0.0,0,12.051720073398508,0.4950645
176,26.799,101183.0,-0.009,-0.01,-0.996,-50.0,-55.0,-10.0,-4.577,-0.854,0.0,0.0,0.0,0,12.31204633507817,0.4960985
177,26.799,101184.0,-0.002,-0.012,-0.992,-50.0,-55.0,-10.0,-4.455,-0.793,0.0,0.0,0.0,0,12.225269893781984,0.492106
178,26.799,101185.0,-0.005,-0.011,-0.992,-50.0,-55.0,-10.0,-4.638,-0.976,0.0,0.0,0.0,0,12.138494473228928,0.49210499999999996
179,26.799,101191.0,-0.008,-0.012,-0.989,-50.0,-55.0,-10.0,-4.516,-1.037,0.122,0.0,0.0,0,11.61786338424573,0.4891645
180,26.799,101181.0,-0.003,-0.006,-0.989,-50.0,-55.0,-10.0,-4.455,-0.793,0.183,0.0,0.0,0,12.485602279981899,0.489083
181,26.799,101195.0,-0.004,-0.008,-0.99,-50.0,-55.0,-10.0,-4.333,-1.098,0.122,0.0,0.0,0,11.270796403611149,0.49008999999999997
182,26.799,101180.0,-0.006,-0.009,-1.0,-50.0,-55.0,-10.0,-4.455,-0.854,0.427,0.0,0.0,0,12.572381783630428,0.5000585
183,26.799,101183.0,-0.002,-0.011,-0.996,-50.0,-55.0,-10.0,-4.577,-1.159,0.244,0.0,0.0,0,12.31204633507817,0.4960705
184,26.799,101188.0,-0.002,-0.009,-0.995,-50.0,-55.0,-10.0,-4.577,-0.854,0.305,0.0,0.0,0,11.878174335803108,0.495055
185,26.799,101183.0,-0.008,-0.012,-0.993,-50.0,-55.0,-10.0,-4.577,-1.098,0.244,0.0,0.0,0,12.31204633507817,0.49312849999999997
186,26.799,101188.0,-0.003,-0.01,-0.989,-50.0,-55.0,-10.0,-4.394,-0.854,0.061,0.0,0.0,0,11.878174335803108,0.489115
187,26.799,101198.0,-0.005,-0.007,-0.991,-50.0,-55.0,-10.0,-4.638,-0.61,0.427,0.0,0.0,0,11.010506883437925,0.4910775
188,26.799,101186.0,-0.004,-0.012,-0.986,-50.0,-55.0,-10.0,-4.394,-0.854,0.0,0.0,0.0,0,12.051720073398508,0.486178
189,26.799,101192.0,-0.004,-0.014,-0.995,-50.0,-55.0,-10.0,-4.455,-1.098,0.305,0.0,0.0,0,11.531095108259294,0.4951185
190,26.799,101186.0,-0.007,-0.008,-0.987,-50.0,-55.0,-10.0,-4.516,-0.915,0.427,0.0,0.0,0,12.051720073398508,0.487141
191,26.799,101184.0,-0.005,-0.012,-0.991,-50.0,-55.0,-10.0,-4.333,-0.732,0.244,0.0,0.0,0,12.225269893781984,0.491125
192,26.799,101190.0,-0.002,-0.012,-0.991,-50.0,-55.0,-10.0,-4.272,-1.159,0.183,0.0,0.0,0,11.70463268081135,0.4911145
193,26.799,101192.0,-0.006,-0.008,-0.996,-50.0,-55.0,-10.0,-4.394,-0.854,0.427,0.0,0.0,0,11.531095108259294,0.496058
194,26.799,101189.0,-0.011,-0.008,-0.992,-50.0,-55.0,-10.0,-4.333,-0.671,0.305,0.0,0.0,0,11.791402997986898,0.49212449999999996
195,26.799,101186.0,-0.007,-0.012,-0.994,-50.0,-55.0,-10.0,-4.577,-0.976,0.427,0.0,0.0,0,12.051720073398508,0.4941145
196,26.799,101189.0,-0.005,-0.013,-0.998,-50.0,-55.0,-10.0,-4.516,-0.793,-0.244,0.0,0.0,0,11.791402997986898,0.498099
197,26.799,101187.0,-0.005,-0.009,-0.988,-50.0,-55.0,-10.0,-4.455,-0.976,0.244,0.0,0.0,0,11.964946694259984,0.48812500000000003
198,26.799,101179.0,-0.005,-0.008,-0.99,-50.0,-55.0,-10.0,-4.455,-1.037,0.488,0.0,0.0,0,12.659162308104058,0.4900945
199,26.799,101174.0,-0.005,-0.01,-0.991,-50.0,-55.0,-10.0,-4.516,-1.098,0.244,0.0,0.0,0,13.093080243719662,0.491103
200,26.799,101188.0,-0.006,-0.004,-0.996,-50.0,-55.0,-10.0,-4.394,-0.793,0.244,0.0,0.0,0,11.878174335803108,0.49603400000000003
