No,Temperature,Pressure,accelX,accelY,accelZ,magX,magY,magZ,gyroX,gryoY,gyroZ,gps_latitude,gps_longtitude,gps_time
1,26.899,100765.0,0.015,0.001,-0.977,-50.0,-55.0,-10.0,-5.126,-2.807,1.037,0.0,0.0,0
2,27.0,100757.0,-0.003,0.002,-0.983,-50.0,-55.0,-10.0,-1.464,3.662,-1.403,0.0,0.0,0
3,27.0,100766.0,0.019,0.019,-1.002,-50.0,-55.0,-10.0,2.441,-1.892,-0.488,0.0,0.0,0
4,27.0,100772.0,0.013,0.022,-1.005,-50.0,-55.0,-10.0,-2.563,0.854,0.793,0.0,0.0,0
5,27.0,100773.0,0.027,0.017,-0.99,-50.0,-55.0,-10.0,-2.38,-1.77,-1.098,0.0,0.0,0
6,27.0,100762.0,0.015,0.013,-0.983,-50.0,-55.0,-10.0,-4.15,-0.244,-1.525,0.0,0.0,0
7,27.0,100766.0,-0.007,0.006,-1.008,-50.0,-55.0,-10.0,-7.263,4.15,-0.061,0.0,0.0,0
8,27.0,100762.0,0.001,0.006,-1.0,-50.0,-55.0,-10.0,-7.141,-8.056,0.061,0.0,0.0,0
9,27.0,100767.0,0.002,0.0,-0.986,-50.0,-55.0,-10.0,-3.356,-5.126,2.624,0.0,0.0,0
10,27.1,100775.0,0.021,-0.006,-0.993,-50.0,-55.0,-10.0,-4.577,-1.647,1.281,0.0,0.0,0
11,27.1,100770.0,0.032,0.006,-0.987,-50.0,-55.0,-10.0,-3.906,-7.324,-1.464,0.0,0.0,0
12,27.1,100770.0,0.064,-0.007,-0.995,-50.0,-55.0,-10.0,-1.464,1.708,-1.77,0.0,0.0,0
13,27.1,100774.0,0.086,-0.01,-0.998,-50.0,-55.0,-10.0,-7.995,0.976,3.051,0.0,0.0,0
14,27.1,100770.0,0.042,-0.027,-1.014,-50.0,-55.0,-10.0,-12.268,4.394,-0.549,0.0,0.0,0
15,27.1,100762.0,0.066,-0.045,-1.025,-50.0,-55.0,-10.0,-4.272,-4.516,-7.507,0.0,0.0,0
16,27.1,100770.0,0.073,-0.043,-1.002,-50.0,-55.0,-10.0,11.108,-0.305,-8.911,0.0,0.0,0
17,27.1,100768.0,0.06,-0.044,-0.967,-50.0,-55.0,-10.0,-5.981,-8.483,-10.375,0.0,0.0,0
18,27.1,100761.0,0.072,-0.031,-0.978,-50.0,-55.0,-10.0,-13.916,-4.577,-2.99,0.0,0.0,0
19,27.1,100762.0,0.045,-0.036,-1.016,-50.0,-55.0,-10.0,-5.737,2.868,-2.014,0.0,0.0,0
20,27.1,100764.0,0.089,-0.041,-0.933,-50.0,-55.0,-10.0,-6.958,-19.348,-8.544,0.0,0.0,0
21,27.1,100766.0,0.137,-0.024,-0.992,-50.0,-55.0,-10.0,-1.403,-3.234,-8.239,0.0,0.0,0
22,27.1,100764.0,0.048,-0.056,-0.976,-50.0,-55.0,-10.0,-5.859,17.578,-4.516,0.0,0.0,0
23,27.1,100772.0,0.045,-0.045,-0.976,-50.0,-55.0,-10.0,-8.85,-10.009,-13.732,0.0,0.0,0
24,27.1,100768.0,0.1,-0.021,-1.018,-50.0,-55.0,-10.0,-13.671,4.089,-14.465,0.0,0.0,0
25,27.1,100760.0,-0.051,0.014,-1.114,-50.0,-55.0,-10.0,2.075,2.746,-16.723,0.0,0.0,0
26,27.1,100768.0,0.032,0.016,-0.918,-50.0,-55.0,-10.0,-2.075,-12.268,-27.77,0.0,0.0,0
27,27.1,100769.0,0.029,0.043,-0.973,-50.0,-55.0,-10.0,-11.352,12.451,-21.789,0.0,0.0,0
28,27.1,100768.0,0.01,0.009,-0.986,-50.0,-55.0,-10.0,4.211,-5.554,-14.892,0.0,0.0,0
29,27.1,100770.0,0.036,0.051,-0.988,-50.0,-55.0,-10.0,11.718,-0.244,-10.253,0.0,0.0,0
30,27.1,100770.0,0.062,0.027,-0.957,-50.0,-55.0,-10.0,-3.417,-11.047,-7.69,0.0,0.0,0
31,27.1,100767.0,0.084,0.019,-0.988,-50.0,-55.0,-10.0,-4.76,-2.014,-0.366,0.0,0.0,0
32,27.1,100770.0,0.093,-0.025,-0.957,-50.0,-55.0,-10.0,-13.549,-2.136,2.441,0.0,0.0,0
33,27.1,100769.0,0.076,0.052,-1.049,-50.0,-55.0,-10.0,-19.165,-13.732,2.014,0.0,0.0,0
34,27.1,100775.0,0.098,-0.046,-1.032,-50.0,-55.0,-10.0,-5.798,11.169,12.39,0.0,0.0,0
35,27.1,100777.0,0.053,0.06,-1.099,-50.0,-55.0,-10.0,16.662,-5.554,7.507,0.0,0.0,0
36,27.1,100771.0,0.058,0.012,-0.99,-50.0,-55.0,-10.0,-8.3,-9.582,0.488,0.0,0.0,0
37,27.1,100766.0,0.03,0.005,-1.038,-50.0,-55.0,-10.0,-5.371,-1.464,2.868,0.0,0.0,0
38,27.1,100770.0,0.021,0.012,-1.0,-50.0,-55.0,-10.0,8.361,8.239,-5.187,0.0,0.0,0
39,27.1,100772.0,0.049,-0.022,-0.903,-50.0,-55.0,-10.0,-7.629,0.183,-12.145,0.0,0.0,0
40,27.1,100767.0,0.039,-0.017,-0.926,-50.0,-55.0,-10.0,-15.502,-4.15,-14.587,0.0,0.0,0
41,27.1,100770.0,0.054,-0.038,-0.963,-50.0,-55.0,-10.0,-8.605,3.662,-10.253,0.0,0.0,0
42,27.1,100770.0,0.053,-0.046,-0.955,-50.0,-55.0,-10.0,-5.554,-5.31,-17.089,0.0,0.0,0
43,27.1,100765.0,0.079,-0.055,-1.013,-50.0,-55.0,-10.0,-17.517,-4.089,-15.991,0.0,0.0,0
44,27.1,100770.0,0.105,-0.017,-0.946,-50.0,-55.0,-10.0,2.258,-0.61,-24.291,0.0,0.0,0
45,27.1,100778.0,0.017,0.035,-1.091,-50.0,-55.0,-10.0,0.854,-9.826,-18.127,0.0,0.0,0
46,27.1,100767.0,0.042,0.024,-0.967,-50.0,-55.0,-10.0,11.291,18.31,-29.418,0.0,0.0,0
47,27.1,100765.0,0.037,0.007,-0.999,-50.0,-55.0,-10.0,-11.657,3.417,-17.089,0.0,0.0,0
48,27.1,100770.0,0.08,-0.013,-0.889,-50.0,-55.0,-10.0,2.441,-9.826,-19.958,0.0,0.0,0
49,27.1,100770.0,0.076,0.005,-0.965,-50.0,-55.0,-10.0,-5.798,2.014,-13.671,0.0,0.0,0
50,27.1,100771.0,0.089,-0.028,-0.948,-50.0,-55.0,-10.0,-9.582,-9.094,-10.192,0.0,0.0,0
51,27.1,100767.0,0.104,-0.016,-1.024,-50.0,-55.0,-10.0,-10.925,-7.507,-0.671,0.0,0.0,0
52,27.1,100763.0,0.083,-0.012,-0.937,-50.0,-55.0,-10.0,-3.356,-0.854,4.211,0.0,0.0,0
53,27.1,100765.0,0.025,0.058,-1.147,-50.0,-55.0,-10.0,10.742,2.502,6.042,0.0,0.0,0
54,27.1,100764.0,0.081,-0.006,-0.924,-50.0,-55.0,-10.0,-7.507,-16.662,-4.699,0.0,0.0,0
55,27.1,100764.0,0.014,0.025,-1.103,-50.0,-55.0,-10.0,-3.662,0.793,1.342,0.0,0.0,0
56,27.1,100761.0,0.007,0.026,-1.036,-50.0,-55.0,-10.0,1.098,9.033,2.075,0.0,0.0,0
57,27.1,100769.0,0.025,0.03,-0.943,-50.0,-55.0,-10.0,-4.882,-9.887,-9.277,0.0,0.0,0
58,27.1,100771.0,0.065,-0.026,-0.851,-50.0,-55.0,-10.0,-15.991,-9.765,-14.831,0.0,0.0,0
59,27.1,100769.0,0.057,0.003,-1.026,-50.0,-55.0,-10.0,-2.014,1.22,-16.967,0.0,0.0,0
60,27.1,100761.0,0.075,-0.022,-0.987,-50.0,-55.0,-10.0,-2.746,-6.103,-17.822,0.0,0.0,0
61,27.1,100761.0,0.046,-0.008,-1.025,-50.0,-55.0,-10.0,-6.713,-0.732,-9.582,0.0,0.0,0
62,27.1,100763.0,0.109,0.0,-0.94,-50.0,-55.0,-10.0,-8.178,-22.033,-19.47,0.0,0.0,0
63,27.1,100760.0,0.019,0.086,-1.095,-50.0,-55.0,-10.0,8.178,27.465,-13.488,0.0,0.0,0
64,27.1,100762.0,0.034,0.011,-0.969,-50.0,-55.0,-10.0,-0.244,3.54,-15.319,0.0,0.0,0
65,27.1,100765.0,0.048,0.026,-0.947,-50.0,-55.0,-10.0,-4.15,-2.014,-7.141,0.0,0.0,0
66,27.1,100770.0,0.032,0.027,-0.959,-50.0,-55.0,-10.0,-0.122,-7.019,-0.305,0.0,0.0,0
67,27.1,100765.0,0.075,0.027,-0.941,-50.0,-55.0,-10.0,-4.333,-3.601,-0.793,0.0,0.0,0
68,27.1,100766.0,0.071,0.039,-1.001,-50.0,-55.0,-10.0,-19.958,-6.347,6.225,0.0,0.0,0
69,27.1,100765.0,0.036,-0.022,-1.008,-50.0,-55.0,-10.0,-6.042,-1.037,6.774,0.0,0.0,0
70,27.1,100768.0,0.038,0.005,-1.069,-50.0,-55.0,-10.0,2.38,0.976,12.756,0.0,0.0,0
71,27.1,100767.0,0.065,0.023,-0.96,-50.0,-55.0,-10.0,5.249,-11.901,9.704,0.0,0.0,0
72,27.1,100772.0,-0.035,0.086,-1.051,-50.0,-55.0,-10.0,-5.065,-4.699,5.554,0.0,0.0,0
73,27.1,100769.0,0.061,0.0,-0.906,-50.0,-55.0,-10.0,-9.338,0.976,-1.281,0.0,0.0,0
74,27.1,100767.0,0.035,0.011,-0.995,-50.0,-55.0,-10.0,-7.019,2.38,3.967,0.0,0.0,0
75,27.1,100768.0,0.04,-0.026,-0.94,-50.0,-55.0,-10.0,-7.751,2.014,-4.028,0.0,0.0,0
76,27.1,100769.0,0.076,-0.035,-0.963,-50.0,-55.0,-10.0,-11.047,-7.263,-7.263,0.0,0.0,0
77,27.1,100773.0,0.053,0.036,-1.087,-50.0,-55.0,-10.0,5.554,5.981,-12.084,0.0,0.0,0
78,27.1,100758.0,0.073,-0.029,-0.917,-50.0,-55.0,-10.0,-9.399,-5.798,-16.906,0.0,0.0,0
79,27.1,100759.0,0.04,0.068,-1.079,-50.0,-55.0,-10.0,2.38,15.869,-21.667,0.0,0.0,0
80,27.1,100762.0,0.096,0.019,-0.915,-50.0,-55.0,-10.0,5.615,-9.216,-15.991,0.0,0.0,0
81,27.2,100769.0,0.025,0.062,-1.019,-50.0,-55.0,-10.0,9.826,17.761,-16.662,0.0,0.0,0
82,27.1,100771.0,0.094,0.039,-0.947,-50.0,-55.0,-10.0,-14.16,-16.113,-10.07,0.0,0.0,0
83,27.2,100772.0,0.042,0.054,-1.0,-50.0,-55.0,-10.0,6.896,8.85,-6.591,0.0,0.0,0
84,27.1,100776.0,0.054,0.042,-1.0,-50.0,-55.0,-10.0,-8.728,3.234,-0.915,0.0,0.0,0
85,27.1,100773.0,0.083,0.063,-1.013,-50.0,-55.0,-10.0,-9.582,3.479,5.126,0.0,0.0,0
86,27.1,100775.0,0.078,0.02,-0.941,-50.0,-55.0,-10.0,-13.0,-11.108,-2.38,0.0,0.0,0
87,27.1,100769.0,0.048,0.033,-1.038,-50.0,-55.0,-10.0,-2.807,7.507,1.586,0.0,0.0,0
88,27.1,100770.0,0.036,0.011,-0.964,-50.0,-55.0,-10.0,-7.019,-10.314,-3.967,0.0,0.0,0
89,27.2,100769.0,0.035,0.026,-1.08,-50.0,-55.0,-10.0,-9.521,15.441,2.563,0.0,0.0,0
90,27.1,100769.0,0.004,-0.009,-0.973,-50.0,-55.0,-10.0,-4.211,-1.037,-7.629,0.0,0.0,0
91,27.1,100770.0,0.046,-0.057,-0.905,-50.0,-55.0,-10.0,-16.052,-1.281,-9.948,0.0,0.0,0
92,27.1,100768.0,0.085,0.004,-0.986,-50.0,-55.0,-10.0,6.164,2.868,-13.549,0.0,0.0,0
93,27.1,100772.0,0.076,-0.033,-0.971,-50.0,-55.0,-10.0,-7.08,-3.051,-22.583,0.0,0.0,0
94,27.1,100765.0,0.045,0.025,-1.08,-50.0,-55.0,-10.0,-2.136,-10.07,-24.291,0.0,0.0,0
95,27.2,100769.0,0.031,-0.001,-0.97,-50.0,-55.0,-10.0,-13.183,-12.268,-18.249,0.0,0.0,0
96,27.1,100772.0,0.007,0.076,-1.088,-50.0,-55.0,-10.0,6.896,-4.272,-14.709,0.0,0.0,0
97,27.2,100770.0,0.033,-0.02,-0.918,-50.0,-55.0,-10.0,-2.258,3.967,3.54,0.0,0.0,0
98,27.1,100770.0,0.01,0.01,-0.979,-50.0,-55.0,-10.0,-5.798,-5.432,8.3,0.0,0.0,0
99,27.1,100769.0,0.074,0.045,-0.956,-50.0,-55.0,-10.0,-7.751,2.563,13.732,0.0,0.0,0
100,27.2,100768.0,0.078,0.057,-1.005,-50.0,-55.0,-10.0,-6.469,-1.831,13.0,0.0,0.0,0
101,27.1,100771.0,0.102,-0.004,-0.968,-50.0,-55.0,-10.0,-6.713,3.173,22.827,0.0,0.0,0
102,27.2,100768.0,0.015,0.001,-1.011,-50.0,-55.0,-10.0,-13.366,4.15,36.315,0.0,0.0,0
103,27.1,100763.0,-0.02,0.022,-1.005,-50.0,-55.0,-10.0,-3.723,9.094,42.297,0.0,0.0,0
104,27.2,100768.0,0.046,-0.033,-0.939,-50.0,-55.0,-10.0,-15.563,-7.324,50.231,0.0,0.0,0
105,27.1,100771.0,0.11,0.04,-1.032,-50.0,-55.0,-10.0,-19.836,-11.657,59.814,0.0,0.0,0
106,27.1,100768.0,0.019,0.035,-1.026,-50.0,-55.0,-10.0,15.319,15.869,54.87,0.0,0.0,0
107,27.1,100770.0,0.002,-0.02,-1.004,-50.0,-55.0,-10.0,11.169,3.906,52.062,0.0,0.0,0
108,27.1,100770.0,0.011,0.032,-0.996,-50.0,-55.0,-10.0,1.342,-0.671,43.151,0.0,0.0,0
109,27.2,100771.0,0.023,-0.015,-0.948,-50.0,-55.0,-10.0,-8.666,-0.183,40.1,0.0,0.0,0
110,27.2,100771.0,0.036,0.0,-0.968,-50.0,-55.0,-10.0,-9.216,3.112,39.001,0.0,0.0,0
111,27.1,100765.0,0.09,0.026,-0.953,-50.0,-55.0,-10.0,-2.502,-8.789,35.888,0.0,0.0,0
112,27.1,100769.0,0.039,0.055,-1.001,-50.0,-55.0,-10.0,-10.253,-11.901,24.108,0.0,0.0,0
113,27.2,100775.0,0.125,0.007,-0.961,-50.0,-55.0,-10.0,-16.113,-8.85,36.315,0.0,0.0,0
114,27.1,100767.0,0.035,0.001,-1.013,-50.0,-55.0,-10.0,-12.084,0.122,30.09,0.0,0.0,0
115,27.2,100773.0,-0.005,0.087,-1.061,-50.0,-55.0,-10.0,5.615,-5.859,17.7,0.0,0.0,0
116,27.1,100768.0,0.112,-0.034,-0.811,-50.0,-55.0,-10.0,-18.432,11.84,16.174,0.0,0.0,0
117,27.2,100770.0,-0.102,0.033,-1.127,-50.0,-55.0,-10.0,4.394,24.108,11.23,0.0,0.0,0
118,27.1,100767.0,0.013,0.041,-0.956,-50.0,-55.0,-10.0,-13.061,4.333,15.747,0.0,0.0,0
119,27.2,100767.0,-0.021,0.066,-1.012,-50.0,-55.0,-10.0,-13.427,-0.915,24.169,0.0,0.0,0
120,27.2,100772.0,-0.005,0.056,-0.966,-50.0,-55.0,-10.0,-8.544,-6.713,25.451,0.0,0.0,0
121,27.1,100763.0,-0.033,0.055,-1.031,-50.0,-55.0,-10.0,0.61,-10.192,22.949,0.0,0.0,0
122,27.1,100763.0,0.02,0.019,-0.988,-50.0,-55.0,-10.0,-8.972,-13.916,22.949,0.0,0.0,0
123,27.2,100760.0,-0.008,0.001,-1.052,-50.0,-55.0,-10.0,9.094,10.253,26.367,0.0,0.0,0
124,27.2,100763.0,-0.013,-0.042,-1.042,-50.0,-55.0,-10.0,4.577,-4.089,17.15,0.0,0.0,0
125,27.2,100776.0,0.047,-0.049,-0.981,-50.0,-55.0,-10.0,5.615,-2.563,8.361,0.0,0.0,0
126,27.2,100767.0,0.045,-0.025,-0.988,-50.0,-55.0,-10.0,-7.385,3.173,2.929,0.0,0.0,0
127,27.2,100772.0,0.078,-0.051,-0.934,-50.0,-55.0,-10.0,-11.474,-4.15,2.38,0.0,0.0,0
128,27.2,100763.0,0.073,-0.013,-0.95,-50.0,-55.0,-10.0,-11.596,-3.54,-0.427,0.0,0.0,0
129,27.2,100768.0,0.071,0.002,-0.991,-50.0,-55.0,-10.0,-4.699,-5.432,-3.967,0.0,0.0,0
130,27.2,100775.0,0.086,-0.007,-0.999,-50.0,-55.0,-10.0,-3.295,-12.207,0.732,0.0,0.0,0
131,27.2,100765.0,0.11,0.007,-0.994,-50.0,-55.0,-10.0,0.732,-10.498,-12.451,0.0,0.0,0
132,27.2,100770.0,0.075,0.087,-1.11,-50.0,-55.0,-10.0,14.221,13.671,-14.709,0.0,0.0,0
133,27.2,100762.0,0.134,0.01,-0.96,-50.0,-55.0,-10.0,8.972,-7.629,-18.676,0.0,0.0,0
134,27.2,100762.0,0.045,0.049,-1.033,-50.0,-55.0,-10.0,-5.31,10.559,-15.991,0.0,0.0,0
135,27.2,100775.0,0.053,0.051,-0.979,-50.0,-55.0,-10.0,-11.474,2.319,-28.442,0.0,0.0,0
136,27.2,100763.0,0.084,0.029,-0.935,-50.0,-55.0,-10.0,-19.531,5.615,-15.136,0.0,0.0,0
137,27.2,100771.0,0.067,0.038,-0.98,-50.0,-55.0,-10.0,-10.925,-3.845,-9.887,0.0,0.0,0
138,27.2,100776.0,0.086,0.026,-0.963,-50.0,-55.0,-10.0,-9.887,-0.488,-6.713,0.0,0.0,0
139,27.2,100764.0,0.047,0.022,-1.036,-50.0,-55.0,-10.0,-9.582,-7.385,0.427,0.0,0.0,0
140,27.2,100769.0,0.073,-0.03,-0.939,-50.0,-55.0,-10.0,-7.141,-13.793,0.061,0.0,0.0,0
141,27.2,100768.0,-0.068,0.029,-1.177,-50.0,-55.0,-10.0,-0.854,9.033,0.061,0.0,0.0,0
142,27.2,100770.0,0.054,-0.09,-0.895,-50.0,-55.0,-10.0,-11.047,-11.047,0.488,0.0,0.0,0
143,27.2,100768.0,-0.049,-0.003,-1.063,-50.0,-55.0,-10.0,13.061,-4.577,-3.112,0.0,0.0,0
144,27.2,100768.0,0.053,-0.074,-0.907,-50.0,-55.0,-10.0,-6.713,-4.089,-7.873,0.0,0.0,0
145,27.2,100777.0,0.065,-0.092,-0.941,-50.0,-55.0,-10.0,-10.314,1.586,3.845,0.0,0.0,0
146,27.2,100769.0,0.041,-0.073,-0.977,-50.0,-55.0,-10.0,-3.723,-3.051,0.244,0.0,0.0,0
147,27.2,100767.0,0.089,-0.069,-0.947,-50.0,-55.0,-10.0,-4.577,-18.066,-7.263,0.0,0.0,0
148,27.2,100766.0,0.084,-0.012,-0.994,-50.0,-55.0,-10.0,-4.699,-8.3,-10.253,0.0,0.0,0
149,27.1,100765.0,0.1,-0.061,-0.981,-50.0,-55.0,-10.0,-21.423,2.868,-4.638,0.0,0.0,0
150,27.2,100762.0,0.065,0.024,-1.14,-50.0,-55.0,-10.0,10.986,19.104,-12.145,0.0,0.0,0
151,27.2,100763.0,0.08,-0.039,-0.97,-50.0,-55.0,-10.0,0.793,-1.281,-10.742,0.0,0.0,0
152,27.2,100768.0,0.04,-0.002,-1.047,-50.0,-55.0,-10.0,-1.586,14.343,-9.46,0.0,0.0,0
153,27.2,100761.0,0.066,-0.025,-0.954,-50.0,-55.0,-10.0,-9.704,-1.098,-6.469,0.0,0.0,0
154,27.2,100769.0,0.111,-0.019,-0.886,-50.0,-55.0,-10.0,-5.126,-4.638,-9.643,0.0,0.0,0
155,27.1,100765.0,0.107,-0.011,-0.983,-50.0,-55.0,-10.0,-9.094,0.976,-1.77,0.0,0.0,0
156,27.2,100764.0,0.084,-0.044,-0.99,-50.0,-55.0,-10.0,-13.305,-4.638,0.183,0.0,0.0,0
157,27.2,100761.0,0.07,-0.052,-0.993,-50.0,-55.0,-10.0,-16.601,-6.286,4.821,0.0,0.0,0
158,27.2,100758.0,0.063,0.012,-1.12,-50.0,-55.0,-10.0,21.606,7.751,6.225,0.0,0.0,0
159,27.2,100772.0,0.009,-0.085,-0.939,-50.0,-55.0,-10.0,-16.113,-10.253,9.643,0.0,0.0,0
160,27.2,100775.0,0.011,0.013,-1.165,-50.0,-55.0,-10.0,-1.77,22.888,17.211,0.0,0.0,0
161,27.2,100768.0,0.011,-0.018,-0.967,-50.0,-55.0,-10.0,-6.958,-6.164,3.112,0.0,0.0,0
162,27.2,100772.0,0.047,-0.065,-0.872,-50.0,-55.0,-10.0,-15.014,-15.197,6.286,0.0,0.0,0
163,27.2,100773.0,0.049,-0.07,-0.901,-50.0,-55.0,-10.0,-8.789,-14.465,8.605,0.0,0.0,0
164,27.2,100776.0,0.069,-0.057,-0.95,-50.0,-55.0,-10.0,-7.202,-17.578,-4.516,0.0,0.0,0
165,27.2,100778.0,0.086,-0.095,-1.04,-50.0,-55.0,-10.0,-3.112,-0.671,-1.586,0.0,0.0,0
166,27.2,100771.0,0.082,-0.027,-1.038,-50.0,-55.0,-10.0,7.385,26.672,5.065,0.0,0.0,0
167,27.2,100765.0,0.09,-0.058,-0.959,-50.0,-55.0,-10.0,-14.77,-13.916,0.976,0.0,0.0,0
168,27.2,100767.0,-0.008,0.06,-1.129,-50.0,-55.0,-10.0,-3.784,11.108,-8.728,0.0,0.0,0
169,27.2,100771.0,0.054,-0.021,-0.898,-50.0,-55.0,-10.0,-11.169,-9.155,-6.958,0.0,0.0,0
170,27.2,100775.0,0.067,-0.049,-0.848,-50.0,-55.0,-10.0,-14.953,-1.525,-7.141,0.0,0.0,0
171,27.2,100775.0,0.083,-0.037,-0.908,-50.0,-55.0,-10.0,-4.211,-11.047,-2.929,0.0,0.0,0
172,27.2,100775.0,0.104,-0.04,-0.974,-50.0,-55.0,-10.0,-0.488,-5.615,7.873,0.0,0.0,0
173,27.2,100773.0,0.001,-0.048,-1.1,-50.0,-55.0,-10.0,1.831,-2.197,13.977,0.0,0.0,0
174,27.2,100767.0,0.021,0.034,-1.199,-50.0,-55.0,-10.0,21.728,0.0,10.742,0.0,0.0,0
175,27.2,100765.0,0.013,-0.024,-1.041,-50.0,-55.0,-10.0,-9.643,7.019,17.15,0.0,0.0,0
176,27.2,100769.0,-0.013,-0.004,-0.952,-50.0,-55.0,-10.0,-10.253,5.676,13.366,0.0,0.0,0
177,27.2,100769.0,0.0,-0.017,-0.904,-50.0,-55.0,-10.0,-18.432,-7.08,5.31,0.0,0.0,0
178,27.2,100767.0,0.036,-0.031,-0.907,-50.0,-55.0,-10.0,-6.774,3.906,7.507,0.0,0.0,0
179,27.2,100769.0,0.076,-0.069,-0.88,-50.0,-55.0,-10.0,-9.704,-4.76,3.967,0.0,0.0,0
180,27.2,100763.0,0.057,-0.029,-1.053,-50.0,-55.0,-10.0,0.183,0.793,-10.742,0.0,0.0,0
181,27.2,100767.0,0.12,-0.027,-1.049,-50.0,-55.0,-10.0,-7.385,-1.342,-6.958,0.0,0.0,0
182,27.2,100770.0,0.052,0.044,-1.205,-50.0,-55.0,-10.0,11.291,20.08,-5.92,0.0,0.0,0
183,27.2,100768.0,0.083,-0.01,-0.957,-50.0,-55.0,-10.0,7.263,6.774,-10.375,0.0,0.0,0
184,27.2,100770.0,0.05,0.023,-0.977,-50.0,-55.0,-10.0,-7.08,-1.892,-10.437,0.0,0.0,0
185,27.2,100778.0,0.071,-0.025,-0.853,-50.0,-55.0,-10.0,-9.155,-7.263,-6.958,0.0,0.0,0
186,27.2,100773.0,0.081,-0.008,-0.953,-50.0,-55.0,-10.0,-7.385,1.892,-3.601,0.0,0.0,0
187,27.2,100766.0,0.098,-0.029,-0.95,-50.0,-55.0,-10.0,-7.446,-8.605,1.342,0.0,0.0,0
188,27.2,100764.0,0.112,0.002,-1.03,-50.0,-55.0,-10.0,-11.23,-15.869,11.474,0.0,0.0,0
189,27.2,100772.0,0.072,-0.021,-1.122,-50.0,-55.0,-10.0,16.113,1.831,10.009,0.0,0.0,0
190,27.2,100766.0,0.04,0.02,-1.09,-50.0,-55.0,-10.0,-6.042,-10.437,15.38,0.0,0.0,0
191,27.2,100763.0,0.016,0.016,-1.104,-50.0,-55.0,-10.0,6.103,25.939,6.042,0.0,0.0,0
192,27.2,100767.0,0.012,-0.024,-0.956,-50.0,-55.0,-10.0,-1.708,2.319,1.525,0.0,0.0,0
193,27.2,100768.0,0.031,-0.056,-0.892,-50.0,-55.0,-10.0,-5.187,-8.361,-1.77,0.0,0.0,0
194,27.2,100763.0,0.042,-0.042,-0.943,-50.0,-55.0,-10.0,-4.516,-2.441,0.915,0.0,0.0,0
195,27.2,100764.0,0.091,-0.09,-0.919,-50.0,-55.0,-10.0,-10.192,-10.681,1.281,0.0,0.0,0
196,27.2,100770.0,0.07,-0.051,-1.016,-50.0,-55.0,-10.0,-0.183,-3.356,-11.352,0.0,0.0,0
197,27.2,100768.0,0.07,-0.016,-1.083,-50.0,-55.0,-10.0,-21.24,3.356,0.183,0.0,0.0,0
198,27.2,100769.0,0.015,0.012,-1.157,-50.0,-55.0,-10.0,4.76,6.835,-6.225,0.0,0.0,0
199,27.2,100772.0,0.092,0.053,-0.931,-50.0,-55.0,-10.0,17.7,9.277,-11.535,0.0,0.0,0
200,27.2,100772.0,0.04,0.052,-1.041,-50.0,-55.0,-10.0,-7.385,4.943,-9.46,0.0,0.0,0
201,27.2,100768.0,0.057,-0.042,-0.88,-50.0,-55.0,-10.0,-11.901,-1.159,-6.835,0.0,0.0,0
202,27.2,100760.0,0.077,-0.017,-0.932,-50.0,-55.0,-10.0,-9.582,-7.995,-2.502,0.0,0.0,0
203,27.2,100768.0,0.084,-0.019,-0.977,-50.0,-55.0,-10.0,-11.169,-1.281,3.967,0.0,0.0,0
204,27.2,100770.0,0.062,-0.025,-0.979,-50.0,-55.0,-10.0,-4.394,-4.333,8.239,0.0,0.0,0
205,27.2,100769.0,0.051,0.052,-1.116,-50.0,-55.0,-10.0,19.348,-0.854,-0.366,0.0,0.0,0
206,27.2,100769.0,0.035,0.002,-1.079,-50.0,-55.0,-10.0,-3.723,15.136,4.028,0.0,0.0,0
207,27.2,100769.0,-0.001,-0.014,-1.005,-50.0,-55.0,-10.0,-11.23,-3.417,3.112,0.0,0.0,0
208,27.2,100767.0,0.001,-0.048,-0.876,-50.0,-55.0,-10.0,-10.498,-9.704,0.122,0.0,0.0,0
209,27.2,100767.0,0.019,-0.025,-0.924,-50.0,-55.0,-10.0,-9.216,-10.437,0.915,0.0,0.0,0
210,27.2,100769.0,0.048,-0.098,-0.894,-50.0,-55.0,-10.0,-14.282,-4.882,1.281,0.0,0.0,0
211,27.2,100770.0,0.094,-0.064,-1.001,-50.0,-55.0,-10.0,-6.896,-9.338,-6.652,0.0,0.0,0
212,27.2,100772.0,0.059,-0.043,-1.025,-50.0,-55.0,-10.0,0.915,-1.586,-2.258,0.0,0.0,0
213,27.2,100773.0,0.04,0.05,-1.216,-50.0,-55.0,-10.0,20.874,13.244,-4.089,0.0,0.0,0
214,27.2,100777.0,0.097,0.064,-1.016,-50.0,-55.0,-10.0,14.77,23.498,6.53,0.0,0.0,0
215,27.2,100772.0,0.078,0.045,-0.991,-50.0,-55.0,-10.0,-7.08,2.868,-2.746,0.0,0.0,0
216,27.2,100766.0,0.07,0.01,-0.876,-50.0,-55.0,-10.0,-20.324,5.187,-8.056,0.0,0.0,0
217,27.2,100771.0,0.1,0.005,-0.923,-50.0,-55.0,-10.0,-18.371,-2.075,-5.981,0.0,0.0,0
218,27.2,100767.0,0.125,-0.025,-0.945,-50.0,-55.0,-10.0,-21.179,-15.625,-4.15,0.0,0.0,0
219,27.2,100762.0,0.053,0.018,-1.155,-50.0,-55.0,-10.0,-13.671,-1.098,6.591,0.0,0.0,0
220,27.2,100766.0,0.03,-0.048,-1.036,-50.0,-55.0,-10.0,13.244,-0.793,-4.699,0.0,0.0,0
221,27.2,100768.0,0.004,-0.072,-0.996,-50.0,-55.0,-10.0,-12.329,-6.347,9.521,0.0,0.0,0
222,27.2,100767.0,-0.042,-0.027,-1.066,-50.0,-55.0,-10.0,9.826,2.258,4.211,0.0,0.0,0
223,27.2,100769.0,0.009,-0.057,-0.931,-50.0,-55.0,-10.0,0.732,2.319,6.53,0.0,0.0,0
224,27.2,100775.0,0.043,-0.067,-0.905,-50.0,-55.0,-10.0,-7.019,-5.187,1.953,0.0,0.0,0
225,27.2,100773.0,0.058,-0.083,-0.909,-50.0,-55.0,-10.0,-5.615,-2.197,1.953,0.0,0.0,0
226,27.2,100775.0,0.089,-0.084,-0.963,-50.0,-55.0,-10.0,-18.554,-15.991,-8.666,0.0,0.0,0
227,27.2,100769.0,0.078,-0.105,-0.986,-50.0,-55.0,-10.0,5.859,-0.366,-8.178,0.0,0.0,0
228,27.2,100774.0,0.044,0.041,-1.148,-50.0,-55.0,-10.0,1.953,19.592,-0.671,0.0,0.0,0
229,27.2,100772.0,0.127,-0.005,-0.939,-50.0,-55.0,-10.0,-1.403,-9.094,-13.793,0.0,0.0,0
230,27.2,100770.0,0.035,0.06,-1.053,-50.0,-55.0,-10.0,-6.652,10.009,-6.408,0.0,0.0,0
231,27.2,100770.0,0.08,-0.017,-0.878,-50.0,-55.0,-10.0,-4.516,1.586,-9.826,0.0,0.0,0
232,27.2,100772.0,0.087,-0.01,-0.889,-50.0,-55.0,-10.0,-8.85,2.258,-9.704,0.0,0.0,0
233,27.2,100771.0,0.086,-0.029,-0.948,-50.0,-55.0,-10.0,-3.173,-11.474,-6.713,0.0,0.0,0
234,27.2,100777.0,0.072,-0.003,-1.055,-50.0,-55.0,-10.0,-11.291,-4.516,12.084,0.0,0.0,0
235,27.2,100775.0,0.02,-0.093,-1.107,-50.0,-55.0,-10.0,-1.708,2.868,8.239,0.0,0.0,0
236,27.2,100773.0,0.027,-0.01,-1.072,-50.0,-55.0,-10.0,8.789,-14.648,15.441,0.0,0.0,0
237,27.2,100767.0,0.0,0.005,-1.024,-50.0,-55.0,-10.0,-4.211,10.925,7.141,0.0,0.0,0
238,27.2,100770.0,-0.02,-0.032,-0.894,-50.0,-55.0,-10.0,-3.601,-3.54,-1.281,0.0,0.0,0
239,27.2,100766.0,0.054,-0.046,-0.897,-50.0,-55.0,-10.0,-16.662,-6.835,6.774,0.0,0.0,0
240,27.2,100771.0,0.042,-0.065,-0.93,-50.0,-55.0,-10.0,4.272,-8.789,4.272,0.0,0.0,0
241,27.2,100775.0,0.113,-0.027,-0.981,-50.0,-55.0,-10.0,-14.282,-4.516,-10.192,0.0,0.0,0
242,27.2,100772.0,0.091,-0.067,-1.091,-50.0,-55.0,-10.0,-9.521,-8.3,-15.38,0.0,0.0,0
243,27.2,100772.0,0.117,0.001,-1.063,-50.0,-55.0,-10.0,2.014,17.089,-12.878,0.0,0.0,0
244,27.2,100770.0,0.093,-0.008,-0.958,-50.0,-55.0,-10.0,1.464,-6.835,-17.272,0.0,0.0,0
245,27.2,100771.0,0.021,0.031,-1.038,-50.0,-55.0,-10.0,-0.854,11.108,-7.995,0.0,0.0,0
246,27.2,100768.0,0.056,-0.009,-0.859,-50.0,-55.0,-10.0,-0.488,-4.455,-10.803,0.0,0.0,0
247,27.2,100768.0,0.081,0.016,-0.917,-50.0,-55.0,-10.0,-5.187,-5.31,-7.995,0.0,0.0,0
248,27.2,100768.0,0.079,-0.016,-0.978,-50.0,-55.0,-10.0,-9.765,-7.446,-3.723,0.0,0.0,0
249,27.2,100772.0,0.09,0.022,-1.067,-50.0,-55.0,-10.0,-10.742,-3.601,14.892,0.0,0.0,0
250,27.2,100777.0,0.017,-0.057,-1.052,-50.0,-55.0,-10.0,3.906,0.122,8.239,0.0,0.0,0
251,27.2,100772.0,0.013,-0.012,-1.124,-50.0,-55.0,-10.0,3.356,-4.15,-0.305,0.0,0.0,0
252,27.2,100770.0,0.084,0.003,-1.09,-50.0,-55.0,-10.0,8.972,17.761,10.437,0.0,0.0,0
253,27.2,100775.0,0.004,-0.032,-0.902,-50.0,-55.0,-10.0,-4.882,-0.244,10.742,0.0,0.0,0
254,27.2,100762.0,0.026,-0.025,-0.916,-50.0,-55.0,-10.0,-15.075,-2.868,0.976,0.0,0.0,0
255,27.2,100774.0,0.033,-0.05,-0.956,-50.0,-55.0,-10.0,-8.666,-2.746,3.112,0.0,0.0,0
256,27.2,100769.0,0.09,-0.064,-0.919,-50.0,-55.0,-10.0,-10.375,-7.995,-2.685,0.0,0.0,0
257,27.2,100774.0,0.058,-0.052,-1.068,-50.0,-55.0,-10.0,-7.568,-9.338,-13.183,0.0,0.0,0
258,27.2,100775.0,0.037,-0.005,-1.056,-50.0,-55.0,-10.0,-2.746,8.239,-3.417,0.0,0.0,0
259,27.2,100763.0,0.092,-0.034,-0.936,-50.0,-55.0,-10.0,-5.859,-15.502,-16.113,0.0,0.0,0
260,27.2,100766.0,-0.019,0.05,-1.049,-50.0,-55.0,-10.0,3.906,20.568,-14.221,0.0,0.0,0
261,27.2,100767.0,0.036,0.001,-0.931,-50.0,-55.0,-10.0,-5.981,1.77,-8.239,0.0,0.0,0
262,27.2,100767.0,0.061,-0.011,-0.882,-50.0,-55.0,-10.0,-6.896,-0.366,-6.164,0.0,0.0,0
263,27.2,100772.0,0.097,-0.018,-0.958,-50.0,-55.0,-10.0,-9.216,-9.399,0.305,0.0,0.0,0
264,27.2,100762.0,0.067,-0.004,-1.037,-50.0,-55.0,-10.0,-5.126,-5.615,10.498,0.0,0.0,0
265,27.2,100768.0,0.036,-0.019,-1.028,-50.0,-55.0,-10.0,1.586,-4.882,1.708,0.0,0.0,0
266,27.2,100756.0,0.019,0.011,-1.215,-50.0,-55.0,-10.0,2.563,11.23,10.498,0.0,0.0,0
267,27.2,100768.0,-0.009,-0.03,-1.063,-50.0,-55.0,-10.0,3.295,8.85,6.286,0.0,0.0,0
268,27.2,100771.0,-0.021,-0.026,-0.993,-50.0,-55.0,-10.0,-1.22,1.831,6.713,0.0,0.0,0
269,27.2,100767.0,0.019,-0.048,-0.915,-50.0,-55.0,-10.0,-7.08,-7.812,2.929,0.0,0.0,0
270,27.2,100772.0,0.034,-0.062,-0.93,-50.0,-55.0,-10.0,-7.263,-7.995,7.873,0.0,0.0,0
271,27.2,100765.0,0.096,-0.073,-0.902,-50.0,-55.0,-10.0,-14.831,-12.207,3.906,0.0,0.0,0
272,27.2,100774.0,0.014,-0.033,-1.078,-50.0,-55.0,-10.0,-11.291,-10.131,-9.216,0.0,0.0,0
273,27.2,100763.0,0.083,-0.01,-0.998,-50.0,-55.0,-10.0,0.183,12.451,2.136,0.0,0.0,0
274,27.2,100765.0,0.095,0.001,-0.993,-50.0,-55.0,-10.0,0.61,-14.038,-6.835,0.0,0.0,0
275,27.2,100773.0,0.041,0.062,-1.035,-50.0,-55.0,-10.0,7.568,30.639,-6.53,0.0,0.0,0
276,27.2,100762.0,0.069,0.021,-0.96,-50.0,-55.0,-10.0,-0.549,7.202,-11.413,0.0,0.0,0
277,27.2,100762.0,0.062,-0.016,-0.896,-50.0,-55.0,-10.0,-11.23,-1.22,-7.324,0.0,0.0,0
278,27.2,100772.0,0.053,-0.007,-1.009,-50.0,-55.0,-10.0,-7.385,-6.774,2.685,0.0,0.0,0
279,27.2,100773.0,0.058,-0.01,-1.048,-50.0,-55.0,-10.0,-4.15,-15.014,6.286,0.0,0.0,0
280,27.2,100778.0,0.03,-0.004,-0.968,-50.0,-55.0,-10.0,-14.953,-1.464,16.479,0.0,0.0,0
281,27.2,100762.0,0.017,-0.019,-1.036,-50.0,-55.0,-10.0,-4.272,-14.77,10.681,0.0,0.0,0
282,27.2,100765.0,-0.02,0.033,-1.126,-50.0,-55.0,-10.0,18.493,21.667,10.864,0.0,0.0,0
283,27.2,100769.0,0.03,-0.013,-0.941,-50.0,-55.0,-10.0,0.427,-2.746,0.854,0.0,0.0,0
284,27.2,100765.0,0.041,-0.063,-0.877,-50.0,-55.0,-10.0,-10.437,-4.821,6.896,0.0,0.0,0
285,27.2,100759.0,0.032,-0.031,-0.976,-50.0,-55.0,-10.0,-1.525,-6.53,10.498,0.0,0.0,0
286,27.2,100768.0,0.087,-0.052,-0.947,-50.0,-55.0,-10.0,-18.005,-8.728,0.61,0.0,0.0,0
287,27.2,100766.0,0.017,-0.037,-1.071,-50.0,-55.0,-10.0,-12.634,-10.192,-8.666,0.0,0.0,0
288,27.1,100769.0,0.063,0.059,-1.173,-50.0,-55.0,-10.0,-1.037,25.878,-5.676,0.0,0.0,0
289,27.2,100768.0,0.042,0.018,-1.013,-50.0,-55.0,-10.0,6.469,10.803,-12.695,0.0,0.0,0
290,27.2,100765.0,0.047,0.015,-0.968,-50.0,-55.0,-10.0,1.464,-0.366,-9.521,0.0,0.0,0
291,27.2,100769.0,0.041,-0.02,-0.863,-50.0,-55.0,-10.0,-14.038,-5.554,-9.704,0.0,0.0,0
292,27.2,100771.0,0.052,-0.012,-0.908,-50.0,-55.0,-10.0,-13.488,-3.601,-3.967,0.0,0.0,0
293,27.2,100772.0,0.079,-0.042,-0.965,-50.0,-55.0,-10.0,-10.009,-13.916,-2.075,0.0,0.0,0
294,27.2,100772.0,0.083,-0.012,-1.012,-50.0,-55.0,-10.0,-15.991,1.159,7.751,0.0,0.0,0
295,27.2,100769.0,0.024,-0.008,-1.106,-50.0,-55.0,-10.0,5.676,10.314,-2.685,0.0,0.0,0
296,27.2,100765.0,0.0,-0.037,-1.011,-50.0,-55.0,-10.0,-12.939,-2.929,1.953,0.0,0.0,0
297,27.2,100763.0,-0.021,-0.02,-1.063,-50.0,-55.0,-10.0,7.995,5.737,2.075,0.0,0.0,0
298,27.2,100772.0,-0.022,-0.06,-0.937,-50.0,-55.0,-10.0,7.324,-2.868,-2.868,0.0,0.0,0
299,27.2,100763.0,0.054,-0.073,-0.857,-50.0,-55.0,-10.0,-7.629,-10.131,-0.122,0.0,0.0,0
300,27.2,100760.0,0.035,-0.1,-0.927,-50.0,-55.0,-10.0,-9.521,-14.953,3.784,0.0,0.0,0
301,27.2,100762.0,0.031,-0.029,-1.069,-50.0,-55.0,-10.0,-6.896,-12.512,-4.333,0.0,0.0,0
302,27.2,100765.0,0.041,-0.053,-1.051,-50.0,-55.0,-10.0,-18.066,-1.403,-3.295,0.0,0.0,0
303,27.2,100758.0,0.085,0.027,-1.152,-50.0,-55.0,-10.0,15.197,14.709,-11.596,0.0,0.0,0
304,27.2,100761.0,0.074,0.0,-0.939,-50.0,-55.0,-10.0,9.399,21.423,-3.601,0.0,0.0,0
305,27.2,100764.0,-0.009,-0.002,-1.0,-50.0,-55.0,-10.0,3.173,-0.366,-4.821,0.0,0.0,0
306,27.2,100766.0,0.07,-0.065,-0.845,-50.0,-55.0,-10.0,-21.118,-1.647,-0.244,0.0,0.0,0
307,27.2,100769.0,0.056,-0.03,-0.946,-50.0,-55.0,-10.0,-4.821,-9.277,3.784,0.0,0.0,0
308,27.2,100768.0,0.072,-0.017,-0.998,-50.0,-55.0,-10.0,-13.488,-15.991,6.164,0.0,0.0,0
309,27.2,100765.0,0.077,-0.042,-1.03,-50.0,-55.0,-10.0,-11.352,-2.319,14.587,0.0,0.0,0
310,27.2,100769.0,0.027,-0.001,-1.132,-50.0,-55.0,-10.0,-4.028,-2.136,10.864,0.0,0.0,0
311,27.2,100769.0,-0.011,-0.044,-1.079,-50.0,-55.0,-10.0,10.986,17.761,21.911,0.0,0.0,0
312,27.2,100768.0,-0.001,-0.029,-0.96,-50.0,-55.0,-10.0,3.234,-6.958,8.239,0.0,0.0,0
313,27.2,100760.0,0.07,-0.061,-0.893,-50.0,-55.0,-10.0,-9.582,-10.498,2.563,0.0,0.0,0
314,27.2,100763.0,0.083,-0.055,-0.926,-50.0,-55.0,-10.0,-9.033,-9.338,10.559,0.0,0.0,0
315,27.2,100764.0,0.094,-0.098,-0.928,-50.0,-55.0,-10.0,-24.353,-13.427,1.464,0.0,0.0,0
316,27.2,100764.0,0.033,-0.049,-1.13,-50.0,-55.0,-10.0,-0.915,-9.643,-9.582,0.0,0.0,0
317,27.2,100759.0,0.131,0.051,-1.101,-50.0,-55.0,-10.0,10.009,14.953,-9.826,0.0,0.0,0
318,27.2,100757.0,0.083,0.011,-1.033,-50.0,-55.0,-10.0,-0.183,12.023,-12.451,0.0,0.0,0
319,27.2,100767.0,0.024,0.045,-1.062,-50.0,-55.0,-10.0,-2.929,22.155,-2.502,0.0,0.0,0
320,27.2,100768.0,0.084,-0.03,-0.826,-50.0,-55.0,-10.0,-13.427,-5.92,-9.948,0.0,0.0,0
321,27.2,100768.0,0.079,-0.019,-0.865,-50.0,-55.0,-10.0,-19.714,-0.976,-8.239,0.0,0.0,0
322,27.2,100772.0,0.064,-0.049,-0.924,-50.0,-55.0,-10.0,-12.39,-2.807,-1.892,0.0,0.0,0
323,27.2,100758.0,0.064,-0.064,-1.055,-50.0,-55.0,-10.0,-13.549,-5.798,17.211,0.0,0.0,0
324,27.2,100762.0,-0.011,0.026,-1.21,-50.0,-55.0,-10.0,17.211,11.108,8.178,0.0,0.0,0
325,27.2,100767.0,0.024,-0.045,-1.017,-50.0,-55.0,-10.0,-1.525,10.62,4.394,0.0,0.0,0
326,27.2,100758.0,-0.009,-0.001,-1.031,-50.0,-55.0,-10.0,-3.051,-3.295,-0.183,0.0,0.0,0
327,27.2,100765.0,0.013,-0.049,-0.916,-50.0,-55.0,-10.0,-8.056,-11.047,-3.662,0.0,0.0,0
328,27.2,100767.0,0.036,-0.077,-0.875,-50.0,-55.0,-10.0,-8.911,-8.056,1.586,0.0,0.0,0
329,27.2,100775.0,0.082,-0.103,-0.887,-50.0,-55.0,-10.0,-8.483,-12.939,0.244,0.0,0.0,0
330,27.2,100765.0,-0.004,-0.043,-1.102,-50.0,-55.0,-10.0,4.211,-5.981,-10.925,0.0,0.0,0
331,27.2,100761.0,0.066,0.025,-1.169,-50.0,-55.0,-10.0,5.065,16.784,-15.075,0.0,0.0,0
332,27.2,100765.0,0.09,0.021,-1.021,-50.0,-55.0,-10.0,3.234,8.789,-7.141,0.0,0.0,0
333,27.2,100764.0,-0.01,0.029,-1.019,-50.0,-55.0,-10.0,8.361,-3.295,-7.263,0.0,0.0,0
334,27.2,100768.0,0.064,-0.017,-0.837,-50.0,-55.0,-10.0,-20.69,-5.31,-5.554,0.0,0.0,0
335,27.2,100772.0,0.062,-0.016,-0.93,-50.0,-55.0,-10.0,-13.061,0.488,-1.22,0.0,0.0,0
336,27.2,100770.0,0.073,-0.056,-0.944,-50.0,-55.0,-10.0,-4.333,-4.455,3.54,0.0,0.0,0
337,27.1,100772.0,0.056,0.008,-1.005,-50.0,-55.0,-10.0,-13.671,2.38,20.141,0.0,0.0,0
338,27.1,100767.0,0.034,0.015,-1.133,-50.0,-55.0,-10.0,10.192,8.239,9.643,0.0,0.0,0
339,27.2,100766.0,0.029,-0.012,-1.072,-50.0,-55.0,-10.0,3.784,-3.906,12.207,0.0,0.0,0
340,27.2,100772.0,0.025,0.003,-1.041,-50.0,-55.0,-10.0,1.159,-2.38,5.31,0.0,0.0,0
341,27.2,100771.0,0.04,-0.041,-0.865,-50.0,-55.0,-10.0,-13.366,-11.779,0.122,0.0,0.0,0
342,27.1,100769.0,0.059,-0.014,-0.908,-50.0,-55.0,-10.0,-5.371,-5.554,-1.77,0.0,0.0,0
343,27.2,100767.0,0.056,-0.076,-0.883,-50.0,-55.0,-10.0,-17.333,-1.77,-3.173,0.0,0.0,0
344,27.2,100766.0,0.069,-0.06,-1.019,-50.0,-55.0,-10.0,-9.033,-9.094,-4.699,0.0,0.0,0
345,27.1,100766.0,0.072,-0.015,-1.034,-50.0,-55.0,-10.0,6.225,3.723,-0.244,0.0,0.0,0
346,27.2,100769.0,-0.003,0.003,-1.14,-50.0,-55.0,-10.0,-4.516,11.718,-15.258,0.0,0.0,0
347,27.1,100763.0,0.129,0.01,-0.949,-50.0,-55.0,-10.0,1.647,5.92,-5.92,0.0,0.0,0
348,27.2,100767.0,0.022,0.051,-1.008,-50.0,-55.0,-10.0,7.629,10.559,-8.972,0.0,0.0,0
349,27.2,100768.0,0.037,-0.03,-0.906,-50.0,-55.0,-10.0,-19.287,4.455,-12.451,0.0,0.0,0
350,27.2,100767.0,0.074,-0.063,-0.892,-50.0,-55.0,-10.0,-7.385,-5.554,-2.136,0.0,0.0,0
351,27.1,100762.0,0.057,-0.03,-1.001,-50.0,-55.0,-10.0,-10.742,-6.469,8.544,0.0,0.0,0
352,27.1,100769.0,0.027,-0.012,-1.057,-50.0,-55.0,-10.0,5.493,-7.934,8.728,0.0,0.0,0
353,27.1,100768.0,0.067,0.023,-1.137,-50.0,-55.0,-10.0,2.014,-5.798,5.737,0.0,0.0,0
354,27.2,100767.0,0.031,-0.025,-1.067,-50.0,-55.0,-10.0,7.629,9.826,7.812,0.0,0.0,0
355,27.2,100772.0,-0.006,-0.022,-1.014,-50.0,-55.0,-10.0,-10.192,1.342,6.53,0.0,0.0,0
356,27.1,100769.0,0.003,-0.059,-0.907,-50.0,-55.0,-10.0,-14.648,-15.136,-2.868,0.0,0.0,0
357,27.2,100773.0,0.01,-0.059,-0.943,-50.0,-55.0,-10.0,-10.925,-7.995,1.22,0.0,0.0,0
358,27.2,100765.0,0.034,-0.076,-0.948,-50.0,-55.0,-10.0,-14.892,2.319,0.061,0.0,0.0,0
359,27.2,100763.0,-0.007,-0.03,-1.083,-50.0,-55.0,-10.0,-7.507,-2.319,-3.723,0.0,0.0,0
360,27.2,100767.0,0.095,-0.021,-1.022,-50.0,-55.0,-10.0,-4.333,3.051,-7.141,0.0,0.0,0
361,27.2,100762.0,0.083,-0.011,-0.987,-50.0,-55.0,-10.0,0.488,-7.08,-11.474,0.0,0.0,0
362,27.2,100767.0,0.044,0.011,-1.037,-50.0,-55.0,-10.0,5.981,15.869,-5.004,0.0,0.0,0
363,27.2,100765.0,0.079,-0.05,-0.878,-50.0,-55.0,-10.0,-8.666,-4.089,-6.591,0.0,0.0,0
364,27.1,100774.0,0.041,-0.043,-0.959,-50.0,-55.0,-10.0,-12.451,-5.187,-4.455,0.0,0.0,0
365,27.2,100772.0,0.104,-0.07,-0.904,-50.0,-55.0,-10.0,-16.479,-13.671,2.807,0.0,0.0,0
366,27.2,100761.0,0.078,-0.043,-1.028,-50.0,-55.0,-10.0,-15.808,0.305,23.559,0.0,0.0,0
367,27.2,100765.0,0.039,-0.037,-1.102,-50.0,-55.0,-10.0,13.305,8.361,11.535,0.0,0.0,0
368,27.1,100773.0,0.062,-0.067,-0.973,-50.0,-55.0,-10.0,0.732,0.61,23.62,0.0,0.0,0
369,27.2,100777.0,0.004,-0.005,-1.046,-50.0,-55.0,-10.0,12.817,-8.483,8.117,0.0,0.0,0
370,27.2,100773.0,0.025,-0.051,-0.878,-50.0,-55.0,-10.0,-11.962,-10.803,3.662,0.0,0.0,0
371,27.2,100774.0,0.064,-0.034,-0.958,-50.0,-55.0,-10.0,-0.61,-8.666,5.554,0.0,0.0,0
372,27.2,100765.0,0.056,-0.096,-0.885,-50.0,-55.0,-10.0,-17.883,-8.972,6.286,0.0,0.0,0
373,27.2,100774.0,0.085,-0.041,-0.987,-50.0,-55.0,-10.0,-14.16,-3.967,-6.408,0.0,0.0,0
374,27.2,100775.0,0.067,-0.066,-1.073,-50.0,-55.0,-10.0,-5.676,3.234,-10.131,0.0,0.0,0
375,27.2,100770.0,0.069,0.01,-1.034,-50.0,-55.0,-10.0,-3.601,-7.385,-17.578,0.0,0.0,0
376,27.2,100765.0,0.122,-0.022,-0.948,-50.0,-55.0,-10.0,5.981,19.714,-10.07,0.0,0.0,0
377,27.2,100766.0,0.05,-0.007,-0.994,-50.0,-55.0,-10.0,2.563,5.981,-7.629,0.0,0.0,0
378,27.2,100766.0,0.066,-0.04,-0.879,-50.0,-55.0,-10.0,-10.925,-2.685,-4.76,0.0,0.0,0
379,27.2,100776.0,0.09,-0.039,-0.929,-50.0,-55.0,-10.0,-5.859,-4.455,1.586,0.0,0.0,0
380,27.2,100772.0,0.074,-0.026,-1.058,-50.0,-55.0,-10.0,-9.216,-8.178,4.028,0.0,0.0,0
381,27.2,100763.0,0.078,-0.055,-0.966,-50.0,-55.0,-10.0,-13.183,-4.76,10.559,0.0,0.0,0
382,27.2,100773.0,0.036,-0.029,-1.147,-50.0,-55.0,-10.0,-4.577,-2.441,13.732,0.0,0.0,0
383,27.2,100771.0,0.043,-0.034,-1.083,-50.0,-55.0,-10.0,27.465,3.601,5.31,0.0,0.0,0
384,27.2,100765.0,0.032,-0.03,-0.981,-50.0,-55.0,-10.0,-2.685,1.342,3.051,0.0,0.0,0
385,27.2,100768.0,0.059,-0.063,-0.905,-50.0,-55.0,-10.0,-3.051,-10.925,-2.868,0.0,0.0,0
386,27.2,100777.0,0.066,-0.068,-0.922,-50.0,-55.0,-10.0,-16.479,-7.568,6.469,0.0,0.0,0
387,27.2,100769.0,0.083,-0.055,-0.988,-50.0,-55.0,-10.0,-15.869,-7.324,-2.014,0.0,0.0,0
388,27.2,100776.0,0.049,-0.09,-0.957,-50.0,-55.0,-10.0,2.99,0.183,-9.765,0.0,0.0,0
389,27.2,100773.0,0.076,0.008,-1.15,-50.0,-55.0,-10.0,2.868,17.578,-7.995,0.0,0.0,0
390,27.2,100765.0,0.106,-0.02,-1.018,-50.0,-55.0,-10.0,-5.676,13.732,-2.258,0.0,0.0,0
391,27.2,100763.0,0.032,0.014,-1.041,-50.0,-55.0,-10.0,10.07,-3.54,0.122,0.0,0.0,0
392,27.2,100772.0,0.084,-0.037,-0.818,-50.0,-55.0,-10.0,-12.512,-2.868,-3.906,0.0,0.0,0
393,27.2,100771.0,0.114,-0.001,-0.958,-50.0,-55.0,-10.0,-8.605,-2.197,0.122,0.0,0.0,0
394,27.2,100772.0,0.095,-0.048,-0.922,-50.0,-55.0,-10.0,-7.019,-5.981,2.868,0.0,0.0,0
395,27.2,100771.0,0.092,-0.035,-1.061,-50.0,-55.0,-10.0,-24.108,-8.789,12.084,0.0,0.0,0
396,27.2,100767.0,0.041,-0.016,-1.192,-50.0,-55.0,-10.0,13.0,12.756,8.422,0.0,0.0,0
397,27.2,100761.0,0.047,-0.076,-1.02,-50.0,-55.0,-10.0,5.432,7.019,9.948,0.0,0.0,0
398,27.2,100766.0,0.003,-0.059,-1.005,-50.0,-55.0,-10.0,-1.037,-0.549,5.554,0.0,0.0,0
399,27.2,100771.0,0.083,-0.031,-0.935,-50.0,-55.0,-10.0,0.061,-11.291,-2.624,0.0,0.0,0
400,27.2,100771.0,0.092,-0.053,-0.877,-50.0,-55.0,-10.0,-9.582,-2.929,1.586,0.0,0.0,0
401,27.2,100766.0,0.06,-0.057,-0.955,-50.0,-55.0,-10.0,-22.949,-6.164,-6.408,0.0,0.0,0
402,27.2,100768.0,0.037,-0.031,-1.001,-50.0,-55.0,-10.0,-12.878,-6.347,-18.371,0.0,0.0,0
403,27.2,100770.0,0.101,-0.004,-1.083,-50.0,-55.0,-10.0,9.582,-0.122,-27.282,0.0,0.0,0
404,27.2,100762.0,0.089,0.03,-1.034,-50.0,-55.0,-10.0,1.708,10.742,-15.136,0.0,0.0,0
405,27.2,100763.0,0.043,0.012,-1.051,-50.0,-55.0,-10.0,7.751,8.666,-18.371,0.0,0.0,0
406,27.2,100773.0,0.079,-0.055,-0.847,-50.0,-55.0,-10.0,-14.587,4.455,-10.559,0.0,0.0,0
407,27.1,100765.0,0.073,-0.025,-0.963,-50.0,-55.0,-10.0,-11.596,-0.61,0.366,0.0,0.0,0
408,27.1,100768.0,0.093,-0.083,-0.9,-50.0,-55.0,-10.0,-2.319,-17.028,-0.366,0.0,0.0,0
409,27.1,100759.0,0.113,-0.079,-1.01,-50.0,-55.0,-10.0,-6.958,-14.953,15.502,0.0,0.0,0
410,27.2,100765.0,0.047,0.014,-1.198,-50.0,-55.0,-10.0,16.601,3.601,8.911,0.0,0.0,0
411,27.2,100770.0,0.051,-0.03,-1.095,-50.0,-55.0,-10.0,10.192,16.601,10.742,0.0,0.0,0
412,27.2,100769.0,0.07,0.002,-0.986,-50.0,-55.0,-10.0,2.685,-3.662,1.708,0.0,0.0,0
413,27.2,100773.0,0.102,-0.018,-0.901,-50.0,-55.0,-10.0,-12.878,-13.916,-6.164,0.0,0.0,0
414,27.2,100772.0,0.11,-0.041,-0.879,-50.0,-55.0,-10.0,-12.023,-6.835,-5.371,0.0,0.0,0
415,27.2,100770.0,0.071,-0.061,-0.864,-50.0,-55.0,-10.0,-18.676,-12.329,-12.39,0.0,0.0,0
416,27.2,100765.0,0.08,0.009,-1.073,-50.0,-55.0,-10.0,-12.878,1.037,-25.451,0.0,0.0,0
417,27.2,100770.0,0.048,0.057,-1.246,-50.0,-55.0,-10.0,20.141,25.39,-23.193,0.0,0.0,0
418,27.2,100773.0,0.15,-0.02,-0.91,-50.0,-55.0,-10.0,10.742,3.356,-30.456,0.0,0.0,0
419,27.2,100765.0,0.062,0.032,-1.029,-50.0,-55.0,-10.0,0.183,16.845,-26.489,0.0,0.0,0
420,27.2,100771.0,0.098,0.009,-0.866,-50.0,-55.0,-10.0,-12.39,-3.967,-33.264,0.0,0.0,0
421,27.2,100761.0,0.097,-0.029,-0.897,-50.0,-55.0,-10.0,-12.756,5.737,-19.409,0.0,0.0,0
422,27.2,100769.0,0.083,-0.019,-0.988,-50.0,-55.0,-10.0,-5.798,-11.108,-12.939,0.0,0.0,0
423,27.2,100772.0,0.116,-0.007,-1.02,-50.0,-55.0,-10.0,-3.845,-2.136,-4.638,0.0,0.0,0
424,27.2,100764.0,0.023,0.071,-1.185,-50.0,-55.0,-10.0,3.723,11.047,-4.699,0.0,0.0,0
425,27.2,100767.0,0.052,-0.04,-1.026,-50.0,-55.0,-10.0,8.789,-0.61,-6.958,0.0,0.0,0
426,27.2,100761.0,0.044,0.021,-1.041,-50.0,-55.0,-10.0,7.629,-4.455,-11.718,0.0,0.0,0
427,27.2,100762.0,0.075,-0.009,-0.881,-50.0,-55.0,-10.0,0.549,-10.314,-21.85,0.0,0.0,0
428,27.2,100762.0,0.079,-0.009,-0.902,-50.0,-55.0,-10.0,-15.197,-4.577,-16.357,0.0,0.0,0
429,27.2,100770.0,0.073,-0.074,-0.85,-50.0,-55.0,-10.0,-21.972,-11.169,-11.657,0.0,0.0,0
430,27.2,100761.0,0.098,-0.023,-0.984,-50.0,-55.0,-10.0,0.244,-22.399,-24.658,0.0,0.0,0
431,27.2,100768.0,0.093,0.084,-1.174,-50.0,-55.0,-10.0,1.77,34.545,-11.169,0.0,0.0,0
432,27.2,100767.0,0.144,0.041,-0.941,-50.0,-55.0,-10.0,-4.821,-12.634,-27.648,0.0,0.0,0
433,27.2,100765.0,0.056,0.076,-1.031,-50.0,-55.0,-10.0,10.925,13.122,-30.761,0.0,0.0,0
434,27.2,100770.0,0.035,0.058,-0.979,-50.0,-55.0,-10.0,-1.77,7.812,-33.63,0.0,0.0,0
435,27.2,100764.0,0.115,0.02,-0.897,-50.0,-55.0,-10.0,-15.563,-1.892,-28.198,0.0,0.0,0
436,27.2,100766.0,0.09,0.003,-0.96,-50.0,-55.0,-10.0,-11.596,-9.216,-19.409,0.0,0.0,0
437,27.2,100770.0,0.062,-0.002,-1.09,-50.0,-55.0,-10.0,-18.554,-5.432,-10.498,0.0,0.0,0
438,27.2,100766.0,0.057,-0.043,-1.083,-50.0,-55.0,-10.0,0.427,7.141,0.244,0.0,0.0,0
439,27.2,100769.0,0.029,-0.002,-1.078,-50.0,-55.0,-10.0,-2.441,-14.404,-2.807,0.0,0.0,0
440,27.2,100770.0,0.014,0.008,-1.059,-50.0,-55.0,-10.0,13.061,-1.342,-12.573,0.0,0.0,0
441,27.2,100766.0,0.063,-0.012,-0.853,-50.0,-55.0,-10.0,2.807,-8.3,-10.742,0.0,0.0,0
442,27.2,100766.0,0.064,-0.029,-0.857,-50.0,-55.0,-10.0,-3.845,-7.507,-6.896,0.0,0.0,0
443,27.2,100772.0,0.066,-0.039,-0.835,-50.0,-55.0,-10.0,-10.131,-6.408,-4.272,0.0,0.0,0
444,27.2,100761.0,0.097,-0.022,-0.964,-50.0,-55.0,-10.0,-14.465,-11.901,-9.094,0.0,0.0,0
445,27.2,100764.0,0.059,-0.037,-1.039,-50.0,-55.0,-10.0,0.854,10.314,-14.526,0.0,0.0,0
446,27.2,100766.0,-0.01,0.089,-1.254,-50.0,-55.0,-10.0,16.784,14.892,-14.648,0.0,0.0,0
447,27.2,100767.0,0.113,0.074,-1.008,-50.0,-55.0,-10.0,11.474,17.089,-21.972,0.0,0.0,0
448,27.2,100761.0,0.034,0.061,-0.972,-50.0,-55.0,-10.0,-2.136,-1.403,-30.456,0.0,0.0,0
449,27.2,100765.0,0.064,-0.008,-0.843,-50.0,-55.0,-10.0,-19.287,-1.403,-19.104,0.0,0.0,0
450,27.2,100764.0,0.084,-0.011,-0.907,-50.0,-55.0,-10.0,-2.319,-4.394,-12.451,0.0,0.0,0
451,27.2,100768.0,0.078,0.031,-1.001,-50.0,-55.0,-10.0,-11.413,-8.178,-5.31,0.0,0.0,0
452,27.2,100774.0,0.068,-0.02,-1.081,-50.0,-55.0,-10.0,-9.216,-6.713,-0.732,0.0,0.0,0
453,27.2,100773.0,0.005,0.041,-1.233,-50.0,-55.0,-10.0,1.342,-0.244,-3.723,0.0,0.0,0
454,27.2,100771.0,0.058,-0.006,-1.098,-50.0,-55.0,-10.0,8.911,0.549,-3.967,0.0,0.0,0
455,27.2,100764.0,0.025,0.026,-0.982,-50.0,-55.0,-10.0,6.774,-5.798,-7.141,0.0,0.0,0
456,27.2,100764.0,0.043,-0.06,-0.782,-50.0,-55.0,-10.0,-0.854,-7.019,-13.061,0.0,0.0,0
457,27.2,100765.0,0.076,0.008,-0.908,-50.0,-55.0,-10.0,-7.507,-4.821,-5.554,0.0,0.0,0
458,27.2,100770.0,0.091,-0.049,-0.833,-50.0,-55.0,-10.0,-19.531,-9.338,0.0,0.0,0.0,0
459,27.2,100772.0,0.05,0.017,-1.102,-50.0,-55.0,-10.0,-2.868,-0.549,-15.38,0.0,0.0,0
460,27.2,100774.0,0.072,0.061,-1.157,-50.0,-55.0,-10.0,0.122,35.827,-10.498,0.0,0.0,0
461,27.2,100765.0,0.125,0.03,-0.956,-50.0,-55.0,-10.0,-13.61,-30.456,-20.568,0.0,0.0,0
462,27.2,100774.0,0.021,0.065,-1.087,-50.0,-55.0,-10.0,-0.61,32.043,-21.85,0.0,0.0,0
463,27.2,100766.0,0.064,0.038,-0.95,-50.0,-55.0,-10.0,-5.615,-5.004,-21.85,0.0,0.0,0
464,27.2,100762.0,0.054,-0.009,-0.872,-50.0,-55.0,-10.0,-17.944,-2.807,-16.845,0.0,0.0,0
465,27.2,100770.0,0.067,-0.016,-0.938,-50.0,-55.0,-10.0,-7.385,-12.634,-12.756,0.0,0.0,0
466,27.2,100778.0,0.086,0.004,-1.015,-50.0,-55.0,-10.0,-11.779,-9.399,-0.366,0.0,0.0,0
467,27.2,100772.0,0.019,-0.01,-1.097,-50.0,-55.0,-10.0,-0.915,1.403,7.507,0.0,0.0,0
468,27.2,100772.0,0.081,-0.076,-0.966,-50.0,-55.0,-10.0,-15.014,-10.437,7.385,0.0,0.0,0
469,27.2,100773.0,0.013,0.019,-1.123,-50.0,-55.0,-10.0,29.479,-1.708,-9.033,0.0,0.0,0
470,27.2,100772.0,0.016,-0.054,-0.816,-50.0,-55.0,-10.0,-19.714,2.746,-3.54,0.0,0.0,0
471,27.2,100774.0,0.036,-0.059,-0.926,-50.0,-55.0,-10.0,-0.488,-0.549,-4.821,0.0,0.0,0
472,27.2,100768.0,0.054,-0.059,-0.923,-50.0,-55.0,-10.0,-5.31,-7.385,4.76,0.0,0.0,0
473,27.2,100768.0,0.059,-0.024,-1.045,-50.0,-55.0,-10.0,-4.333,-4.821,-8.117,0.0,0.0,0
474,27.2,100770.0,0.076,-0.018,-0.985,-50.0,-55.0,-10.0,-3.479,0.183,-18.371,0.0,0.0,0
475,27.2,100775.0,0.026,0.067,-1.25,-50.0,-55.0,-10.0,11.291,14.648,-19.226,0.0,0.0,0
476,27.2,100775.0,0.081,0.023,-1.04,-50.0,-55.0,-10.0,7.995,26.062,-19.531,0.0,0.0,0
477,27.2,100767.0,0.051,0.029,-1.002,-50.0,-55.0,-10.0,-9.033,0.915,-11.596,0.0,0.0,0
478,27.2,100772.0,0.087,0.001,-0.797,-50.0,-55.0,-10.0,-11.779,-14.343,-8.911,0.0,0.0,0
479,27.2,100768.0,0.083,0.02,-0.908,-50.0,-55.0,-10.0,-17.089,-6.103,-14.16,0.0,0.0,0
480,27.2,100772.0,0.112,-0.028,-0.938,-50.0,-55.0,-10.0,-9.277,-6.225,-10.681,0.0,0.0,0
481,27.2,100769.0,0.119,-0.044,-1.04,-50.0,-55.0,-10.0,-3.479,2.624,10.192,0.0,0.0,0
482,27.2,100774.0,0.03,0.042,-1.198,-50.0,-55.0,-10.0,19.226,10.742,3.662,0.0,0.0,0
483,27.2,100768.0,0.025,-0.082,-1.021,-50.0,-55.0,-10.0,-5.737,16.906,0.244,0.0,0.0,0
484,27.2,100767.0,-0.008,-0.012,-1.045,-50.0,-55.0,-10.0,9.887,-1.77,-1.831,0.0,0.0,0
485,27.2,100766.0,0.006,-0.052,-0.896,-50.0,-55.0,-10.0,-6.774,-8.911,-0.305,0.0,0.0,0
486,27.2,100772.0,0.033,-0.046,-0.913,-50.0,-55.0,-10.0,-6.652,-11.962,-3.051,0.0,0.0,0
487,27.2,100771.0,0.072,-0.062,-0.879,-50.0,-55.0,-10.0,-13.732,-12.634,-6.408,0.0,0.0,0
488,27.2,100779.0,-0.01,-0.017,-1.129,-50.0,-55.0,-10.0,8.117,-16.845,-23.925,0.0,0.0,0
489,27.2,100777.0,0.102,-0.029,-1.029,-50.0,-55.0,-10.0,-10.253,12.756,-12.512,0.0,0.0,0
490,27.2,100771.0,0.073,0.0,-0.98,-50.0,-55.0,-10.0,-5.859,-21.301,-17.517,0.0,0.0,0
491,27.2,100774.0,0.071,0.06,-1.102,-50.0,-55.0,-10.0,-6.835,24.108,1.77,0.0,0.0,0
492,27.2,100776.0,0.07,0.019,-0.874,-50.0,-55.0,-10.0,-3.417,-2.99,-10.314,0.0,0.0,0
493,27.2,100767.0,0.08,0.0,-0.86,-50.0,-55.0,-10.0,-21.484,-2.624,-4.821,0.0,0.0,0
494,27.2,100772.0,0.065,-0.026,-0.917,-50.0,-55.0,-10.0,-8.789,-3.845,-0.915,0.0,0.0,0
495,27.299,100769.0,0.144,-0.003,-0.996,-50.0,-55.0,-10.0,-6.225,-11.169,7.385,0.0,0.0,0
496,27.2,100771.0,0.075,-0.051,-1.08,-50.0,-55.0,-10.0,-0.183,14.77,9.277,0.0,0.0,0
497,27.299,100779.0,0.062,-0.047,-0.974,-50.0,-55.0,-10.0,-5.615,-17.761,6.53,0.0,0.0,0
498,27.299,100772.0,0.022,0.0,-1.121,-50.0,-55.0,-10.0,13.671,9.094,9.765,0.0,0.0,0
499,27.299,100775.0,-0.021,-0.013,-1.019,-50.0,-55.0,-10.0,0.244,-0.488,4.15,0.0,0.0,0
500,27.299,100772.0,0.062,-0.046,-0.891,-50.0,-55.0,-10.0,-6.103,-4.76,-4.943,0.0,0.0,0
501,27.2,100769.0,0.07,-0.061,-0.88,-50.0,-55.0,-10.0,-12.145,-6.713,0.366,0.0,0.0,0
502,27.299,100772.0,0.103,-0.034,-0.947,-50.0,-55.0,-10.0,-11.657,-4.394,-3.601,0.0,0.0,0
503,27.299,100769.0,0.062,-0.073,-0.997,-50.0,-55.0,-10.0,-5.615,1.525,-13.916,0.0,0.0,0
504,27.299,100777.0,0.083,-0.038,-1.087,-50.0,-55.0,-10.0,1.098,23.071,-7.141,0.0,0.0,0
505,27.299,100769.0,0.123,-0.049,-0.901,-50.0,-55.0,-10.0,-6.347,-19.287,-11.596,0.0,0.0,0
506,27.299,100769.0,0.034,0.056,-1.149,-50.0,-55.0,-10.0,6.53,12.145,-5.065,0.0,0.0,0
507,27.299,100771.0,0.034,-0.012,-0.938,-50.0,-55.0,-10.0,-14.038,4.943,1.037,0.0,0.0,0
508,27.299,100773.0,0.067,-0.055,-0.867,-50.0,-55.0,-10.0,-13.244,-5.737,-3.54,0.0,0.0,0
509,27.299,100778.0,0.096,-0.025,-0.907,-50.0,-55.0,-10.0,-11.535,-12.268,3.601,0.0,0.0,0
510,27.299,100767.0,0.131,-0.032,-1.057,-50.0,-55.0,-10.0,-18.737,-5.676,5.432,0.0,0.0,0
511,27.299,100770.0,0.057,-0.066,-1.039,-50.0,-55.0,-10.0,0.366,-0.671,14.343,0.0,0.0,0
512,27.299,100769.0,0.065,-0.026,-1.081,-50.0,-55.0,-10.0,4.577,-14.526,14.587,0.0,0.0,0
513,27.299,100771.0,0.02,-0.014,-1.071,-50.0,-55.0,-10.0,23.376,1.403,14.465,0.0,0.0,0
514,27.299,100773.0,0.013,-0.028,-0.975,-50.0,-55.0,-10.0,5.065,11.047,6.713,0.0,0.0,0
515,27.299,100774.0,0.063,-0.076,-0.813,-50.0,-55.0,-10.0,-9.521,-8.911,4.333,0.0,0.0,0
516,27.299,100777.0,0.085,-0.042,-0.916,-50.0,-55.0,-10.0,-7.324,-2.441,4.394,0.0,0.0,0
517,27.299,100770.0,0.128,-0.034,-0.948,-50.0,-55.0,-10.0,-16.113,-2.929,-5.065,0.0,0.0,0
518,27.299,100770.0,0.072,-0.026,-1.126,-50.0,-55.0,-10.0,-3.112,9.765,-12.573,0.0,0.0,0
519,27.299,100774.0,0.045,0.033,-1.231,-50.0,-55.0,-10.0,-0.244,11.718,-15.441,0.0,0.0,0
520,27.299,100770.0,0.139,-0.033,-0.937,-50.0,-55.0,-10.0,-1.403,1.403,-18.493,0.0,0.0,0
521,27.299,100772.0,0.053,0.023,-1.02,-50.0,-55.0,-10.0,7.568,-1.037,-11.962,0.0,0.0,0
522,27.299,100774.0,0.06,-0.03,-0.807,-50.0,-55.0,-10.0,-18.188,-3.112,-12.145,0.0,0.0,0
523,27.299,100773.0,0.092,-0.03,-0.909,-50.0,-55.0,-10.0,-10.803,1.953,-5.187,0.0,0.0,0
524,27.299,100781.0,0.128,-0.039,-0.964,-50.0,-55.0,-10.0,-3.173,-8.85,6.103,0.0,0.0,0
525,27.299,100778.0,0.044,-0.055,-1.086,-50.0,-55.0,-10.0,-21.85,-3.051,28.32,0.0,0.0,0
526,27.299,100778.0,0.08,-0.051,-1.111,-50.0,-55.0,-10.0,-4.211,-17.7,13.549,0.0,0.0,0
527,27.299,100775.0,0.069,-0.016,-1.106,-50.0,-55.0,-10.0,19.409,8.911,17.333,0.0,0.0,0
528,27.299,100775.0,-0.026,-0.017,-0.983,-50.0,-55.0,-10.0,-8.85,0.549,9.887,0.0,0.0,0
529,27.299,100777.0,0.034,-0.091,-0.833,-50.0,-55.0,-10.0,-4.272,-7.873,5.065,0.0,0.0,0
530,27.299,100770.0,0.087,-0.052,-0.873,-50.0,-55.0,-10.0,-9.826,-6.53,13.061,0.0,0.0,0
531,27.299,100769.0,0.093,-0.063,-0.968,-50.0,-55.0,-10.0,-12.756,-8.117,1.403,0.0,0.0,0
532,27.299,100771.0,0.08,-0.066,-1.079,-50.0,-55.0,-10.0,-28.747,9.338,-8.911,0.0,0.0,0
533,27.299,100770.0,0.006,-0.021,-1.248,-50.0,-55.0,-10.0,7.934,32.165,-13.122,0.0,0.0,0
534,27.299,100771.0,0.156,-0.064,-0.933,-50.0,-55.0,-10.0,2.502,-9.826,-8.056,0.0,0.0,0
535,27.299,100771.0,-0.012,0.024,-1.07,-50.0,-55.0,-10.0,15.258,2.807,-6.347,0.0,0.0,0
536,27.299,100773.0,0.083,-0.04,-0.799,-50.0,-55.0,-10.0,-10.742,-13.793,-7.08,0.0,0.0,0
537,27.299,100769.0,0.097,-0.022,-0.896,-50.0,-55.0,-10.0,-10.986,-8.972,4.211,0.0,0.0,0
538,27.299,100770.0,0.143,-0.052,-0.866,-50.0,-55.0,-10.0,-12.512,-7.751,6.835,0.0,0.0,0
539,27.299,100776.0,0.087,-0.049,-1.062,-50.0,-55.0,-10.0,-18.554,6.164,11.901,0.0,0.0,0
540,27.299,100776.0,0.068,-0.01,-1.163,-50.0,-55.0,-10.0,23.986,29.907,7.812,0.0,0.0,0
541,27.299,100772.0,0.083,-0.093,-0.974,-50.0,-55.0,-10.0,-11.962,-10.253,3.112,0.0,0.0,0
542,27.299,100778.0,-0.034,-0.005,-1.078,-50.0,-55.0,-10.0,4.882,-5.249,4.333,0.0,0.0,0
543,27.299,100779.0,0.021,-0.045,-0.876,-50.0,-55.0,-10.0,-1.831,-11.047,-2.929,0.0,0.0,0
544,27.299,100771.0,0.042,-0.068,-0.821,-50.0,-55.0,-10.0,-4.211,-8.728,7.141,0.0,0.0,0
545,27.299,100774.0,0.094,-0.076,-0.865,-50.0,-55.0,-10.0,-17.7,-10.498,11.535,0.0,0.0,0
546,27.299,100775.0,0.081,-0.058,-1.098,-50.0,-55.0,-10.0,-6.408,4.516,-2.014,0.0,0.0,0
547,27.299,100778.0,0.106,-0.056,-1.121,-50.0,-55.0,-10.0,-9.948,2.868,0.122,0.0,0.0,0
548,27.299,100773.0,0.036,0.021,-1.149,-50.0,-55.0,-10.0,18.798,-9.521,-7.568,0.0,0.0,0
549,27.399,100776.0,0.098,0.07,-1.022,-50.0,-55.0,-10.0,15.93,17.395,-1.708,0.0,0.0,0
550,27.299,100778.0,0.038,-0.012,-0.943,-50.0,-55.0,-10.0,-11.901,-4.638,-3.723,0.0,0.0,0
551,27.399,100781.0,0.081,-0.051,-0.803,-50.0,-55.0,-10.0,-22.46,-8.483,-0.183,0.0,0.0,0
552,27.399,100775.0,0.093,-0.062,-0.839,-50.0,-55.0,-10.0,-13.122,-0.183,13.61,0.0,0.0,0
553,27.399,100775.0,0.096,-0.052,-0.909,-50.0,-55.0,-10.0,-23.62,-1.708,10.192,0.0,0.0,0
554,27.399,100775.0,0.079,-0.04,-1.136,-50.0,-55.0,-10.0,-9.887,-0.427,18.31,0.0,0.0,0
555,27.399,100776.0,0.033,0.062,-1.304,-50.0,-55.0,-10.0,23.681,-0.366,7.812,0.0,0.0,0
556,27.399,100777.0,0.053,-0.073,-1.007,-50.0,-55.0,-10.0,7.69,-4.394,9.155,0.0,0.0,0
557,27.399,100779.0,0.029,-0.049,-0.933,-50.0,-55.0,-10.0,3.295,-13.244,15.502,0.0,0.0,0
558,27.399,100774.0,0.037,-0.027,-0.863,-50.0,-55.0,-10.0,-12.878,-6.408,11.23,0.0,0.0,0
559,27.399,100775.0,0.059,-0.092,-0.886,-50.0,-55.0,-10.0,-12.451,-5.676,20.812,0.0,0.0,0
560,27.399,100769.0,0.134,-0.064,-0.9,-50.0,-55.0,-10.0,-14.709,-14.77,18.493,0.0,0.0,0
561,27.399,100770.0,0.142,-0.033,-1.043,-50.0,-55.0,-10.0,5.676,-0.122,6.835,0.0,0.0,0
562,27.399,100777.0,0.069,0.036,-1.252,-50.0,-55.0,-10.0,-5.249,30.334,20.812,0.0,0.0,0
563,27.399,100782.0,0.099,0.03,-1.058,-50.0,-55.0,-10.0,3.845,5.92,8.422,0.0,0.0,0
564,27.399,100781.0,0.086,0.048,-1.006,-50.0,-55.0,-10.0,2.624,5.432,6.958,0.0,0.0,0
565,27.399,100766.0,0.056,-0.028,-0.851,-50.0,-55.0,-10.0,-20.629,-3.601,8.85,0.0,0.0,0
566,27.399,100766.0,0.062,-0.019,-0.928,-50.0,-55.0,-10.0,-13.366,-1.098,19.104,0.0,0.0,0
567,27.399,100776.0,0.075,0.0,-1.019,-50.0,-55.0,-10.0,-22.033,-21.423,32.348,0.0,0.0,0
568,27.399,100771.0,0.023,-0.069,-0.997,-50.0,-55.0,-10.0,-11.047,-0.976,44.982,0.0,0.0,0
569,27.399,100769.0,0.102,-0.1,-0.938,-50.0,-55.0,-10.0,-12.084,-20.263,32.47,0.0,0.0,0
570,27.399,100776.0,-0.008,0.009,-1.156,-50.0,-55.0,-10.0,23.498,32.165,32.714,0.0,0.0,0
571,27.399,100767.0,0.02,-0.09,-0.846,-50.0,-55.0,-10.0,-6.164,-13.061,26.672,0.0,0.0,0
572,27.399,100771.0,0.065,-0.051,-0.88,-50.0,-55.0,-10.0,-16.235,-14.16,31.494,0.0,0.0,0
573,27.399,100770.0,0.108,-0.033,-0.936,-50.0,-55.0,-10.0,-8.483,-12.207,28.564,0.0,0.0,0
574,27.399,100772.0,0.071,-0.06,-1.025,-50.0,-55.0,-10.0,-14.587,1.098,14.709,0.0,0.0,0
575,27.399,100775.0,0.137,-0.004,-1.061,-50.0,-55.0,-10.0,-23.986,-9.765,11.352,0.0,0.0,0
576,27.399,100774.0,0.15,-0.013,-1.015,-50.0,-55.0,-10.0,3.173,-1.708,5.981,0.0,0.0,0
577,27.399,100773.0,0.075,0.052,-1.057,-50.0,-55.0,-10.0,3.417,25.207,4.821,0.0,0.0,0
578,27.399,100771.0,0.075,-0.009,-0.977,-50.0,-55.0,-10.0,-5.615,7.629,5.676,0.0,0.0,0
579,27.399,100770.0,0.095,-0.062,-0.795,-50.0,-55.0,-10.0,-19.714,-0.671,10.742,0.0,0.0,0
580,27.399,100775.0,0.093,-0.039,-0.958,-50.0,-55.0,-10.0,-12.817,-4.15,13.427,0.0,0.0,0
581,27.399,100770.0,0.125,-0.055,-0.973,-50.0,-55.0,-10.0,-20.751,-1.892,22.338,0.0,0.0,0
582,27.399,100774.0,0.07,-0.042,-1.05,-50.0,-55.0,-10.0,-7.08,4.089,36.621,0.0,0.0,0
583,27.399,100773.0,0.055,0.059,-1.159,-50.0,-55.0,-10.0,12.634,0.61,29.785,0.0,0.0,0
584,27.399,100768.0,-0.002,-0.039,-1.068,-50.0,-55.0,-10.0,0.488,17.089,26.611,0.0,0.0,0
585,27.399,100770.0,-0.001,0.008,-1.016,-50.0,-55.0,-10.0,-5.737,-4.15,23.437,0.0,0.0,0
586,27.399,100777.0,0.013,-0.02,-0.877,-50.0,-55.0,-10.0,-13.854,-8.605,14.343,0.0,0.0,0
587,27.399,100778.0,0.043,-0.043,-0.87,-50.0,-55.0,-10.0,-11.23,-5.798,20.996,0.0,0.0,0
588,27.399,100777.0,0.07,-0.099,-0.881,-50.0,-55.0,-10.0,-15.502,-15.808,20.751,0.0,0.0,0
589,27.399,100780.0,0.015,-0.081,-1.117,-50.0,-55.0,-10.0,10.131,-14.892,7.08,0.0,0.0,0
590,27.5,100776.0,0.053,-0.004,-1.162,-50.0,-55.0,-10.0,1.586,22.277,15.747,0.0,0.0,0
591,27.399,100776.0,0.135,0.003,-0.99,-50.0,-55.0,-10.0,6.835,-9.277,14.099,0.0,0.0,0
592,27.399,100779.0,0.047,0.082,-0.995,-50.0,-55.0,-10.0,-11.779,4.943,21.789,0.0,0.0,0
593,27.399,100772.0,0.025,-0.008,-0.886,-50.0,-55.0,-10.0,-25.207,-11.352,25.268,0.0,0.0,0
594,27.399,100772.0,0.093,-0.008,-0.872,-50.0,-55.0,-10.0,-19.714,2.014,26.367,0.0,0.0,0
595,27.399,100772.0,0.109,0.025,-0.921,-50.0,-55.0,-10.0,-16.235,-9.338,20.629,0.0,0.0,0
596,27.5,100774.0,0.096,-0.014,-1.052,-50.0,-55.0,-10.0,-24.414,12.207,35.766,0.0,0.0,0
597,27.5,100771.0,-0.005,-0.005,-1.125,-50.0,-55.0,-10.0,7.446,3.295,31.005,0.0,0.0,0
598,27.5,100773.0,0.05,-0.071,-1.016,-50.0,-55.0,-10.0,-17.7,-10.559,31.616,0.0,0.0,0
599,27.5,100776.0,0.003,-0.023,-1.03,-50.0,-55.0,-10.0,3.784,-4.333,28.686,0.0,0.0,0
600,27.5,100769.0,-0.005,-0.011,-0.93,-50.0,-55.0,-10.0,-12.207,0.915,18.432,0.0,0.0,0
601,27.5,100772.0,0.018,-0.024,-0.972,-50.0,-55.0,-10.0,-8.483,-6.042,25.573,0.0,0.0,0
602,27.5,100769.0,0.029,-0.018,-1.014,-50.0,-55.0,-10.0,-7.995,-20.996,20.08,0.0,0.0,0
603,27.5,100775.0,0.024,-0.029,-1.059,-50.0,-55.0,-10.0,-8.483,0.854,3.784,0.0,0.0,0
604,27.5,100771.0,0.093,-0.034,-1.018,-50.0,-55.0,-10.0,-12.084,6.835,6.774,0.0,0.0,0
605,27.5,100762.0,0.089,0.017,-1.025,-50.0,-55.0,-10.0,1.464,-1.831,2.929,0.0,0.0,0
606,27.5,100768.0,0.043,0.057,-1.035,-50.0,-55.0,-10.0,-0.732,8.789,8.056,0.0,0.0,0
607,27.5,100767.0,0.031,-0.045,-0.888,-50.0,-55.0,-10.0,-5.615,1.831,8.911,0.0,0.0,0
608,27.5,100768.0,0.073,-0.036,-0.877,-50.0,-55.0,-10.0,-4.089,7.995,12.145,0.0,0.0,0
609,27.5,100769.0,0.081,0.004,-0.93,-50.0,-55.0,-10.0,-9.277,-1.77,22.705,0.0,0.0,0
610,27.5,100768.0,0.057,0.013,-1.024,-50.0,-55.0,-10.0,-4.943,2.868,25.939,0.0,0.0,0
611,27.5,100774.0,0.074,0.047,-1.055,-50.0,-55.0,-10.0,11.169,-19.592,24.719,0.0,0.0,0
612,27.5,100773.0,0.084,0.04,-1.053,-50.0,-55.0,-10.0,9.033,10.131,20.507,0.0,0.0,0
613,27.5,100768.0,0.058,0.007,-0.985,-50.0,-55.0,-10.0,-30.883,-20.629,15.38,0.0,0.0,0
614,27.5,100771.0,0.021,0.027,-1.059,-50.0,-55.0,-10.0,-6.774,11.169,26.916,0.0,0.0,0
615,27.5,100761.0,-0.011,0.014,-0.968,-50.0,-55.0,-10.0,-2.624,-4.15,15.319,0.0,0.0,0
616,27.5,100771.0,0.05,-0.002,-0.898,-50.0,-55.0,-10.0,-10.498,-0.366,2.685,0.0,0.0,0
617,27.5,100769.0,0.073,-0.011,-0.94,-50.0,-55.0,-10.0,-7.507,-1.098,3.54,0.0,0.0,0
618,27.5,100774.0,0.095,-0.068,-0.922,-50.0,-55.0,-10.0,-7.812,1.647,8.056,0.0,0.0,0
619,27.5,100773.0,0.1,-0.054,-1.032,-50.0,-55.0,-10.0,2.746,3.051,9.765,0.0,0.0,0
620,27.5,100763.0,0.064,-0.056,-1.074,-50.0,-55.0,-10.0,-12.634,-4.089,16.906,0.0,0.0,0
621,27.5,100764.0,0.107,-0.043,-0.981,-50.0,-55.0,-10.0,-7.019,-27.77,19.47,0.0,0.0,0
622,27.5,100766.0,0.056,0.086,-1.126,-50.0,-55.0,-10.0,0.366,-5.493,11.352,0.0,0.0,0
623,27.5,100768.0,0.1,-0.028,-0.912,-50.0,-55.0,-10.0,-18.615,-4.15,6.591,0.0,0.0,0
624,27.5,100765.0,0.007,-0.018,-0.999,-50.0,-55.0,-10.0,-15.991,-0.915,16.052,0.0,0.0,0
625,27.5,100768.0,0.086,-0.032,-0.851,-50.0,-55.0,-10.0,-6.225,-4.272,22.583,0.0,0.0,0
626,27.5,100768.0,0.072,-0.009,-0.931,-50.0,-55.0,-10.0,-9.887,4.15,41.015,0.0,0.0,0
627,27.5,100770.0,0.042,0.003,-0.974,-50.0,-55.0,-10.0,-8.361,8.117,52.673,0.0,0.0,0
628,27.5,100769.0,0.052,0.084,-1.039,-50.0,-55.0,-10.0,-8.239,-3.479,60.302,0.0,0.0,0
629,27.5,100770.0,0.091,-0.01,-0.898,-50.0,-55.0,-10.0,-12.939,-9.643,45.837,0.0,0.0,0
630,27.5,100771.0,0.07,0.062,-1.154,-50.0,-55.0,-10.0,1.037,9.582,51.391,0.0,0.0,0
631,27.5,100769.0,-0.005,0.006,-1.076,-50.0,-55.0,-10.0,-11.962,8.483,53.894,0.0,0.0,0
632,27.5,100766.0,0.012,0.0,-1.001,-50.0,-55.0,-10.0,-10.009,2.258,41.687,0.0,0.0,0
633,27.5,100775.0,0.02,-0.06,-0.963,-50.0,-55.0,-10.0,-29.968,2.868,32.104,0.0,0.0,0
634,27.5,100768.0,0.02,-0.07,-0.945,-50.0,-55.0,-10.0,-17.761,8.728,22.888,0.0,0.0,0
635,27.5,100766.0,0.014,-0.052,-1.017,-50.0,-55.0,-10.0,-13.488,15.319,23.315,0.0,0.0,0
636,27.5,100773.0,0.08,-0.027,-0.927,-50.0,-55.0,-10.0,1.525,0.0,15.991,0.0,0.0,0
637,27.5,100776.0,0.088,0.004,-1.0,-50.0,-55.0,-10.0,-1.281,11.657,17.517,0.0,0.0,0
638,27.5,100767.0,0.063,0.0,-0.99,-50.0,-55.0,-10.0,3.723,8.056,17.7,0.0,0.0,0
639,27.5,100771.0,0.077,0.024,-1.003,-50.0,-55.0,-10.0,6.286,7.873,1.831,0.0,0.0,0
640,27.5,100768.0,0.087,0.057,-1.037,-50.0,-55.0,-10.0,-0.244,-6.896,-10.375,0.0,0.0,0
641,27.5,100769.0,0.125,0.042,-1.008,-50.0,-55.0,-10.0,-7.385,1.22,-11.23,0.0,0.0,0
642,27.5,100770.0,0.114,0.043,-0.969,-50.0,-55.0,-10.0,-1.586,-11.169,-14.587,0.0,0.0,0
643,27.5,100778.0,0.127,0.056,-0.928,-50.0,-55.0,-10.0,3.234,11.779,-23.986,0.0,0.0,0
644,27.5,100774.0,0.067,0.022,-1.039,-50.0,-55.0,-10.0,-25.207,0.122,2.685,0.0,0.0,0
645,27.5,100775.0,0.087,0.083,-1.104,-50.0,-55.0,-10.0,-2.868,1.586,9.033,0.0,0.0,0
646,27.5,100779.0,0.157,-0.039,-0.828,-50.0,-55.0,-10.0,-3.784,-7.08,-5.432,0.0,0.0,0
647,27.5,100777.0,0.093,0.001,-0.998,-50.0,-55.0,-10.0,-0.793,12.756,-14.16,0.0,0.0,0
648,27.5,100771.0,0.073,-0.037,-0.977,-50.0,-55.0,-10.0,-8.911,13.671,-20.385,0.0,0.0,0
649,27.5,100765.0,0.142,-0.046,-0.901,-50.0,-55.0,-10.0,-8.544,9.155,-21.728,0.0,0.0,0
650,27.5,100770.0,0.119,-0.009,-0.955,-50.0,-55.0,-10.0,2.319,-2.502,-26.184,0.0,0.0,0
651,27.6,100765.0,0.128,-0.011,-1.061,-50.0,-55.0,-10.0,-2.38,-3.967,-32.287,0.0,0.0,0
652,27.5,100766.0,0.168,-0.065,-0.992,-50.0,-55.0,-10.0,-2.868,-11.474,-22.033,0.0,0.0,0
653,27.6,100770.0,0.11,-0.033,-1.06,-50.0,-55.0,-10.0,7.202,-16.54,-14.953,0.0,0.0,0
654,27.6,100772.0,0.05,0.087,-1.191,-50.0,-55.0,-10.0,30.517,0.488,-31.066,0.0,0.0,0
655,27.6,100768.0,0.086,0.042,-0.887,-50.0,-55.0,-10.0,-23.315,-33.02,-27.343,0.0,0.0,0
656,27.6,100771.0,-0.031,0.098,-1.086,-50.0,-55.0,-10.0,-0.793,9.338,-26.062,0.0,0.0,0
657,27.6,100767.0,0.015,-0.002,-0.807,-50.0,-55.0,-10.0,-12.695,9.033,-19.165,0.0,0.0,0
658,27.6,100769.0,0.031,0.0,-0.854,-50.0,-55.0,-10.0,-7.446,-3.356,-12.145,0.0,0.0,0
659,27.6,100769.0,0.099,0.003,-0.926,-50.0,-55.0,-10.0,-9.704,-3.54,2.38,0.0,0.0,0
660,27.6,100769.0,0.097,0.023,-1.039,-50.0,-55.0,-10.0,-13.977,-12.512,9.094,0.0,0.0,0
661,27.6,100769.0,0.004,0.028,-1.184,-50.0,-55.0,-10.0,11.779,-1.525,12.023,0.0,0.0,0
662,27.6,100770.0,0.048,-0.027,-1.094,-50.0,-55.0,-10.0,-11.596,-24.658,9.46,0.0,0.0,0
663,27.6,100771.0,-0.026,0.008,-1.127,-50.0,-55.0,-10.0,20.751,24.047,13.427,0.0,0.0,0
664,27.6,100772.0,-0.007,-0.054,-0.908,-50.0,-55.0,-10.0,-0.61,-1.525,3.417,0.0,0.0,0
665,27.6,100777.0,0.037,-0.076,-0.822,-50.0,-55.0,-10.0,-16.906,-7.141,14.892,0.0,0.0,0
666,27.6,100770.0,0.064,-0.061,-0.898,-50.0,-55.0,-10.0,-1.342,-20.751,27.282,0.0,0.0,0
667,27.6,100776.0,0.074,-0.049,-1.007,-50.0,-55.0,-10.0,-7.385,-13.61,21.911,0.0,0.0,0
668,27.6,100769.0,0.091,-0.038,-1.028,-50.0,-55.0,-10.0,-2.868,-1.159,11.535,0.0,0.0,0
669,27.6,100768.0,0.017,0.061,-1.23,-50.0,-55.0,-10.0,7.385,17.883,13.305,0.0,0.0,0
670,27.6,100778.0,0.057,0.054,-1.132,-50.0,-55.0,-10.0,15.686,24.23,13.916,0.0,0.0,0
671,27.6,100777.0,0.036,0.029,-0.96,-50.0,-55.0,-10.0,1.098,-11.291,11.779,0.0,0.0,0
672,27.6,100775.0,0.067,0.023,-0.85,-50.0,-55.0,-10.0,-18.981,-9.033,20.08,0.0,0.0,0
673,27.6,100775.0,0.09,0.045,-0.897,-50.0,-55.0,-10.0,-11.352,-20.446,17.15,0.0,0.0,0
674,27.6,100773.0,0.115,0.029,-0.953,-50.0,-55.0,-10.0,-13.61,-20.629,25.207,0.0,0.0,0
675,27.6,100768.0,-0.012,0.045,-1.108,-50.0,-55.0,-10.0,-3.295,1.403,33.02,0.0,0.0,0
676,27.6,100775.0,0.055,-0.083,-0.99,-50.0,-55.0,-10.0,-20.385,-16.723,32.47,0.0,0.0,0
677,27.6,100776.0,-0.062,0.006,-1.16,-50.0,-55.0,-10.0,14.831,19.531,43.273,0.0,0.0,0
678,27.6,100776.0,0.008,-0.02,-0.885,-50.0,-55.0,-10.0,12.756,-16.357,31.982,0.0,0.0,0
679,27.6,100777.0,0.073,-0.027,-0.813,-50.0,-55.0,-10.0,-20.202,-12.512,49.56,0.0,0.0,0
680,27.6,100777.0,0.065,0.022,-0.97,-50.0,-55.0,-10.0,-9.46,-8.361,42.846,0.0,0.0,0
681,27.6,100778.0,0.079,0.018,-1.004,-50.0,-55.0,-10.0,-4.882,-16.235,16.479,0.0,0.0,0
682,27.6,100770.0,0.177,0.162,-1.127,-50.0,-55.0,-10.0,-8.117,-23.62,25.695,0.0,0.0,0
683,27.6,100768.0,0.023,0.067,-1.001,-50.0,-55.0,-10.0,-14.465,2.99,23.62,0.0,0.0,0
684,27.6,100771.0,-0.059,0.038,-0.989,-50.0,-55.0,-10.0,-23.681,6.652,46.691,0.0,0.0,0
685,27.6,100767.0,0.041,-0.007,-1.005,-50.0,-55.0,-10.0,-2.258,-6.591,59.57,0.0,0.0,0
686,27.6,100763.0,0.075,-0.011,-0.874,-50.0,-55.0,-10.0,2.563,-14.099,72.998,0.0,0.0,0
687,27.6,100772.0,0.15,0.058,-0.954,-50.0,-55.0,-10.0,-29.785,-25.512,103.21,0.0,0.0,0
688,27.6,100770.0,0.029,-0.008,-0.994,-50.0,-55.0,-10.0,-22.094,16.235,123.291,0.0,0.0,0
689,27.6,100768.0,0.068,0.048,-1.022,-50.0,-55.0,-10.0,0.793,-13.122,115.112,0.0,0.0,0
690,27.6,100769.0,0.119,0.089,-0.886,-50.0,-55.0,-10.0,-42.602,-21.423,98.327,0.0,0.0,0
691,27.6,100768.0,0.031,0.122,-1.131,-50.0,-55.0,-10.0,-10.742,8.483,80.688,0.0,0.0,0
692,27.6,100768.0,0.102,0.042,-1.001,-50.0,-55.0,-10.0,-31.066,19.958,77.941,0.0,0.0,0
693,27.6,100774.0,-0.107,0.043,-1.036,-50.0,-55.0,-10.0,-2.502,-6.164,77.392,0.0,0.0,0
694,27.6,100775.0,0.111,0.062,-0.899,-50.0,-55.0,-10.0,-14.282,-26.184,67.016,0.0,0.0,0
695,27.6,100773.0,0.046,0.057,-0.985,-50.0,-55.0,-10.0,-19.042,-6.591,62.133,0.0,0.0,0
696,27.6,100770.0,0.014,0.097,-1.011,-50.0,-55.0,-10.0,-18.615,12.207,80.444,0.0,0.0,0
697,27.6,100772.0,-0.037,0.12,-1.1,-50.0,-55.0,-10.0,3.051,0.732,63.964,0.0,0.0,0
698,27.6,100774.0,0.007,0.131,-1.017,-50.0,-55.0,-10.0,10.681,5.432,52.612,0.0,0.0,0
699,27.6,100771.0,-0.084,0.155,-1.148,-50.0,-55.0,-10.0,0.61,2.624,47.79,0.0,0.0,0
700,27.6,100780.0,0.067,0.136,-0.937,-50.0,-55.0,-10.0,-7.934,0.427,44.555,0.0,0.0,0
701,27.6,100772.0,0.049,0.149,-0.993,-50.0,-55.0,-10.0,-27.16,-13.854,52.429,0.0,0.0,0
702,27.6,100775.0,0.065,0.265,-1.016,-50.0,-55.0,-10.0,-20.935,-38.391,27.709,0.0,0.0,0
703,27.6,100775.0,-0.008,0.192,-0.924,-50.0,-55.0,-10.0,-22.338,-21.85,30.639,0.0,0.0,0
704,27.6,100774.0,0.057,0.15,-0.935,-50.0,-55.0,-10.0,-3.417,-1.403,36.621,0.0,0.0,0
705,27.6,100777.0,0.029,0.01,-1.009,-50.0,-55.0,-10.0,-10.253,3.051,40.283,0.0,0.0,0
706,27.6,100770.0,0.026,-0.052,-1.026,-50.0,-55.0,-10.0,14.343,9.46,43.395,0.0,0.0,0
707,27.6,100774.0,0.029,0.009,-1.034,-50.0,-55.0,-10.0,-3.295,5.798,28.442,0.0,0.0,0
708,27.6,100766.0,0.012,-0.026,-0.942,-50.0,-55.0,-10.0,-18.188,-6.896,23.986,0.0,0.0,0
709,27.6,100769.0,0.012,0.001,-0.946,-50.0,-55.0,-10.0,-21.301,-7.568,29.724,0.0,0.0,0
710,27.6,100772.0,-0.012,0.019,-1.013,-50.0,-55.0,-10.0,-10.681,-12.023,37.048,0.0,0.0,0
711,27.6,100763.0,0.046,0.063,-0.967,-50.0,-55.0,-10.0,1.77,-24.902,34.606,0.0,0.0,0
712,27.7,100764.0,0.016,0.099,-1.064,-50.0,-55.0,-10.0,0.244,-15.075,30.029,0.0,0.0,0
713,27.7,100769.0,0.058,0.006,-0.952,-50.0,-55.0,-10.0,-5.798,-18.31,26.123,0.0,0.0,0
714,27.7,100765.0,0.047,0.061,-1.04,-50.0,-55.0,-10.0,-6.286,22.583,44.189,0.0,0.0,0
715,27.6,100772.0,-0.006,0.083,-1.059,-50.0,-55.0,-10.0,-1.953,13.122,29.418,0.0,0.0,0
716,27.7,100771.0,0.028,0.071,-0.935,-50.0,-55.0,-10.0,-31.311,-6.469,53.466,0.0,0.0,0
717,27.7,100773.0,-0.041,0.074,-0.972,-50.0,-55.0,-10.0,-19.104,-11.901,64.086,0.0,0.0,0
718,27.7,100775.0,-0.028,0.08,-0.979,-50.0,-55.0,-10.0,-23.986,0.976,61.889,0.0,0.0,0
719,27.6,100769.0,-0.046,0.019,-0.925,-50.0,-55.0,-10.0,-22.583,11.169,65.429,0.0,0.0,0
720,27.7,100775.0,0.121,0.049,-0.919,-50.0,-55.0,-10.0,-16.906,-0.671,64.697,0.0,0.0,0
721,27.7,100767.0,-0.04,-0.014,-1.145,-50.0,-55.0,-10.0,5.31,18.676,63.903,0.0,0.0,0
722,27.7,100770.0,0.048,-0.061,-1.074,-50.0,-55.0,-10.0,-0.671,-5.31,54.992,0.0,0.0,0
723,27.7,100774.0,0.052,-0.025,-1.087,-50.0,-55.0,-10.0,-2.258,-3.479,49.072,0.0,0.0,0
724,27.7,100767.0,0.102,-0.02,-0.942,-50.0,-55.0,-10.0,-15.258,-8.85,58.837,0.0,0.0,0
725,27.7,100771.0,0.034,0.007,-0.993,-50.0,-55.0,-10.0,-7.019,-0.854,43.884,0.0,0.0,0
726,27.7,100767.0,0.066,0.013,-0.975,-50.0,-55.0,-10.0,-4.272,7.934,41.931,0.0,0.0,0
727,27.7,100770.0,0.041,0.055,-0.976,-50.0,-55.0,-10.0,1.098,2.38,27.16,0.0,0.0,0
728,27.7,100775.0,0.023,0.067,-0.977,-50.0,-55.0,-10.0,-18.859,-19.104,23.62,0.0,0.0,0
729,27.7,100766.0,0.041,0.069,-1.025,-50.0,-55.0,-10.0,-13.549,-10.375,14.587,0.0,0.0,0
730,27.7,100777.0,0.065,0.123,-0.983,-50.0,-55.0,-10.0,-11.84,-17.211,9.643,0.0,0.0,0
731,27.7,100782.0,0.095,0.135,-0.99,-50.0,-55.0,-10.0,-3.662,-2.075,1.708,0.0,0.0,0
732,27.7,100778.0,0.119,0.121,-1.006,-50.0,-55.0,-10.0,-22.094,-9.338,-0.976,0.0,0.0,0
733,27.7,100780.0,0.079,0.097,-0.981,-50.0,-55.0,-10.0,-13.793,-8.361,-7.934,0.0,0.0,0
734,27.7,100771.0,0.133,0.062,-0.992,-50.0,-55.0,-10.0,-13.061,-14.221,-1.647,0.0,0.0,0
735,27.7,100772.0,0.091,0.058,-0.983,-50.0,-55.0,-10.0,-11.901,-5.737,7.995,0.0,0.0,0
736,27.7,100771.0,0.102,0.04,-0.992,-50.0,-55.0,-10.0,8.178,0.122,11.413,0.0,0.0,0
737,27.7,100773.0,0.098,0.048,-0.997,-50.0,-55.0,-10.0,0.061,-6.896,5.676,0.0,0.0,0
738,27.7,100771.0,0.064,0.025,-0.94,-50.0,-55.0,-10.0,-7.08,4.882,-2.563,0.0,0.0,0
739,27.7,100770.0,0.173,-0.025,-0.979,-50.0,-55.0,-10.0,-17.15,-15.075,7.507,0.0,0.0,0
740,27.7,100769.0,0.084,-0.053,-0.987,-50.0,-55.0,-10.0,-7.446,10.437,-4.211,0.0,0.0,0
741,27.7,100768.0,0.026,0.008,-0.913,-50.0,-55.0,-10.0,-11.84,10.742,2.563,0.0,0.0,0
742,27.7,100766.0,0.061,-0.02,-1.003,-50.0,-55.0,-10.0,2.807,8.361,-0.549,0.0,0.0,0
743,27.7,100769.0,0.081,-0.056,-0.995,-50.0,-55.0,-10.0,-10.62,5.493,0.854,0.0,0.0,0
744,27.7,100771.0,0.049,-0.043,-1.008,-50.0,-55.0,-10.0,-13.549,-8.178,-2.38,0.0,0.0,0
745,27.7,100767.0,0.083,-0.048,-1.02,-50.0,-55.0,-10.0,-7.446,-4.089,1.464,0.0,0.0,0
746,27.7,100767.0,0.071,-0.04,-0.977,-50.0,-55.0,-10.0,2.197,-7.69,0.671,0.0,0.0,0
747,27.7,100763.0,0.073,-0.026,-0.925,-50.0,-55.0,-10.0,-2.746,-3.662,-0.976,0.0,0.0,0
748,27.7,100764.0,0.045,-0.016,-0.971,-50.0,-55.0,-10.0,-5.615,-2.929,-0.305,0.0,0.0,0
749,27.7,100767.0,0.088,-0.026,-0.992,-50.0,-55.0,-10.0,-2.502,-1.708,-4.577,0.0,0.0,0
750,27.7,100767.0,0.093,-0.025,-0.978,-50.0,-55.0,-10.0,-4.394,-1.098,-2.99,0.0,0.0,0
751,27.7,100762.0,0.106,-0.033,-0.985,-50.0,-55.0,-10.0,-7.446,-6.164,-4.516,0.0,0.0,0
752,27.7,100771.0,0.091,-0.027,-0.98,-50.0,-55.0,-10.0,-2.136,1.098,-1.647,0.0,0.0,0
753,27.7,100772.0,0.086,-0.033,-0.983,-50.0,-55.0,-10.0,-5.981,-1.953,-2.197,0.0,0.0,0
754,27.7,100765.0,0.088,-0.035,-0.976,-50.0,-55.0,-10.0,-4.394,2.99,-0.915,0.0,0.0,0
755,27.7,100766.0,0.074,-0.02,-1.018,-50.0,-55.0,-10.0,-2.807,5.31,-1.586,0.0,0.0,0
756,27.7,100762.0,0.091,-0.023,-0.992,-50.0,-55.0,-10.0,0.366,3.173,-1.647,0.0,0.0,0
757,27.7,100762.0,0.073,-0.022,-0.984,-50.0,-55.0,-10.0,-8.178,-1.525,-1.953,0.0,0.0,0
758,27.7,100766.0,0.07,-0.022,-0.993,-50.0,-55.0,-10.0,-7.69,-1.037,-1.342,0.0,0.0,0
759,27.7,100764.0,0.069,-0.037,-0.974,-50.0,-55.0,-10.0,-4.516,2.441,-2.319,0.0,0.0,0
760,27.7,100764.0,0.071,-0.034,-1.002,-50.0,-55.0,-10.0,-5.065,2.075,-1.586,0.0,0.0,0
761,27.7,100767.0,0.07,-0.046,-1.006,-50.0,-55.0,-10.0,-5.126,1.892,-1.22,0.0,0.0,0
762,27.7,100774.0,0.072,-0.033,-0.995,-50.0,-55.0,-10.0,0.122,-1.831,-1.281,0.0,0.0,0
763,27.7,100771.0,0.06,-0.041,-0.979,-50.0,-55.0,-10.0,-4.15,-3.54,0.671,0.0,0.0,0
764,27.7,100771.0,0.075,-0.032,-0.979,-50.0,-55.0,-10.0,-4.943,-1.525,-1.098,0.0,0.0,0
765,27.7,100767.0,0.055,-0.028,-0.993,-50.0,-55.0,-10.0,-6.958,2.441,0.854,0.0,0.0,0
766,27.7,100767.0,0.071,-0.037,-1.006,-50.0,-55.0,-10.0,-3.417,-1.281,-0.061,0.0,0.0,0
767,27.7,100762.0,0.08,-0.038,-0.981,-50.0,-55.0,-10.0,-5.432,-2.197,0.366,0.0,0.0,0
768,27.7,100772.0,0.067,-0.03,-0.999,-50.0,-55.0,-10.0,-4.211,-0.671,-1.098,0.0,0.0,0
769,27.7,100764.0,0.08,-0.025,-0.995,-50.0,-55.0,-10.0,-1.159,-3.54,-0.549,0.0,0.0,0
770,27.7,100773.0,0.077,-0.036,-0.978,-50.0,-55.0,-10.0,-4.638,-0.549,0.244,0.0,0.0,0
771,27.7,100770.0,0.062,-0.016,-1.014,-50.0,-55.0,-10.0,-2.38,0.61,-0.427,0.0,0.0,0
772,27.7,100769.0,0.075,-0.033,-0.965,-50.0,-55.0,-10.0,-2.807,0.122,-0.549,0.0,0.0,0
773,27.7,100769.0,0.069,-0.033,-0.99,-50.0,-55.0,-10.0,-5.615,0.488,-0.854,0.0,0.0,0
774,27.7,100769.0,0.065,-0.027,-1.004,-50.0,-55.0,-10.0,-1.525,-1.281,0.488,0.0,0.0,0
775,27.7,100772.0,0.073,-0.014,-1.003,-50.0,-55.0,-10.0,-3.234,-0.854,2.563,0.0,0.0,0
776,27.7,100768.0,0.069,-0.021,-0.985,-50.0,-55.0,-10.0,-5.737,-2.197,-1.586,0.0,0.0,0
777,27.7,100776.0,0.08,-0.021,-0.99,-50.0,-55.0,-10.0,-8.178,-0.854,-0.915,0.0,0.0,0
778,27.7,100770.0,0.064,-0.027,-0.995,-50.0,-55.0,-10.0,-2.746,-1.647,0.366,0.0,0.0,0
779,27.7,100765.0,0.073,-0.018,-0.992,-50.0,-55.0,-10.0,-1.281,-2.99,-1.159,0.0,0.0,0
780,27.7,100766.0,0.067,-0.014,-1.006,-50.0,-55.0,-10.0,-6.896,-3.723,-0.427,0.0,0.0,0
781,27.7,100765.0,0.072,-0.01,-0.99,-50.0,-55.0,-10.0,-6.835,-2.685,-1.037,0.0,0.0,0
782,27.7,100773.0,0.078,-0.031,-0.965,-50.0,-55.0,-10.0,-5.554,-0.244,-0.854,0.0,0.0,0
783,27.7,100765.0,0.072,-0.027,-0.99,-50.0,-55.0,-10.0,-6.774,-2.99,0.427,0.0,0.0,0
784,27.7,100764.0,0.079,-0.019,-0.994,-50.0,-55.0,-10.0,-5.371,-0.183,1.22,0.0,0.0,0
785,27.7,100764.0,0.07,-0.022,-1.005,-50.0,-55.0,-10.0,-6.469,-1.708,-1.22,0.0,0.0,0
786,27.7,100770.0,0.096,-0.04,-0.984,-50.0,-55.0,-10.0,-7.995,-3.967,-0.915,0.0,0.0,0
787,27.7,100768.0,0.083,-0.042,-0.971,-50.0,-55.0,-10.0,-6.652,-0.366,0.671,0.0,0.0,0
788,27.7,100767.0,0.074,-0.036,-0.975,-50.0,-55.0,-10.0,-4.577,1.892,1.831,0.0,0.0,0
789,27.7,100769.0,0.083,-0.04,-0.976,-50.0,-55.0,-10.0,-7.812,1.403,2.075,0.0,0.0,0
790,27.7,100776.0,0.096,-0.052,-0.993,-50.0,-55.0,-10.0,-4.333,1.159,4.15,0.0,0.0,0
791,27.7,100771.0,0.13,-0.036,-0.977,-50.0,-55.0,-10.0,-1.647,5.981,6.958,0.0,0.0,0
792,27.7,100771.0,0.072,-0.033,-1.055,-50.0,-55.0,-10.0,-3.845,-3.723,3.234,0.0,0.0,0
793,27.7,100771.0,0.075,-0.039,-0.985,-50.0,-55.0,-10.0,-6.835,-4.272,0.366,0.0,0.0,0
794,27.7,100768.0,0.067,-0.03,-1.0,-50.0,-55.0,-10.0,-6.042,-6.713,-0.488,0.0,0.0,0
795,27.7,100766.0,0.078,-0.047,-0.941,-50.0,-55.0,-10.0,-3.295,-1.403,0.244,0.0,0.0,0
796,27.7,100772.0,0.085,-0.05,-1.009,-50.0,-55.0,-10.0,-0.061,2.014,-0.061,0.0,0.0,0
797,27.7,100771.0,0.154,-0.011,-1.211,-50.0,-55.0,-10.0,5.737,6.713,5.004,0.0,0.0,0
798,27.7,100771.0,0.186,-0.033,-1.578,-50.0,-55.0,-10.0,-13.488,-19.042,-7.019,0.0,0.0,0
799,27.7,100764.0,0.131,-0.03,-1.408,-50.0,-55.0,-10.0,-52.856,-59.692,-3.479,0.0,0.0,0
800,27.7,100770.0,0.146,-0.13,-1.02,-50.0,-55.0,-10.0,-39.733,-86.791,5.31,0.0,0.0,0
801,27.7,100776.0,0.141,-0.101,-0.322,-50.0,-55.0,-10.0,-4.943,-73.181,-4.028,0.0,0.0,0
802,27.7,100774.0,0.176,-0.036,0.179,-50.0,-55.0,-10.0,-16.357,-56.518,-8.422,0.0,0.0,0
803,27.7,100779.0,-0.322,0.162,0.426,-50.0,-55.0,-10.0,-1.831,-8.605,18.066,0.0,0.0,0
804,27.7,100772.0,-0.601,0.272,0.959,-50.0,-55.0,-10.0,1.098,-0.549,-7.263,0.0,0.0,0
805,27.7,100769.0,0.343,-0.082,1.249,-50.0,-55.0,-10.0,-42.846,5.615,18.737,0.0,0.0,0
806,27.7,100785.0,0.215,0.157,-2.846,-50.0,-55.0,-10.0,196.044,174.316,6.652,0.0,0.0,0
807,27.7,100789.0,-0.291,-0.589,-2.696,-50.0,-55.0,-10.0,-116.638,66.955,-31.921,0.0,0.0,0
808,27.799,100794.0,0.325,-0.187,-2.145,-50.0,-55.0,-10.0,109.069,21.545,47.18,0.0,0.0,0
809,27.7,100795.0,0.166,0.019,-1.745,-50.0,-55.0,-10.0,-15.319,33.752,-10.803,0.0,0.0,0
810,27.7,100799.0,0.136,-0.051,-1.654,-50.0,-55.0,-10.0,22.827,14.221,4.76,0.0,0.0,0
811,27.799,100803.0,0.023,-0.002,-1.063,-50.0,-55.0,-10.0,17.211,8.361,6.164,0.0,0.0,0
812,27.7,100800.0,0.101,0.041,-1.043,-50.0,-55.0,-10.0,-7.934,-12.634,-1.403,0.0,0.0,0
813,27.799,100798.0,0.124,0.076,-0.884,-50.0,-55.0,-10.0,-11.047,-21.24,-5.981,0.0,0.0,0
814,27.799,100796.0,0.081,0.037,-0.958,-50.0,-55.0,-10.0,14.709,-4.577,9.582,0.0,0.0,0
815,27.799,100796.0,0.028,0.116,-0.965,-50.0,-55.0,-10.0,-27.77,-30.517,8.544,0.0,0.0,0
816,27.799,100796.0,0.015,0.087,-1.094,-50.0,-55.0,-10.0,6.713,5.859,3.54,0.0,0.0,0
817,27.799,100794.0,0.044,0.111,-1.401,-50.0,-55.0,-10.0,-13.366,-0.732,-0.427,0.0,0.0,0
818,27.799,100795.0,0.122,0.058,-1.385,-50.0,-55.0,-10.0,-3.662,7.995,-18.371,0.0,0.0,0
819,27.799,100790.0,0.122,0.044,-1.504,-50.0,-55.0,-10.0,-5.126,8.972,-12.634,0.0,0.0,0
820,27.799,100793.0,0.055,0.068,-1.299,-50.0,-55.0,-10.0,-5.615,-13.977,-19.897,0.0,0.0,0
821,27.799,100794.0,0.039,0.028,-0.948,-50.0,-55.0,-10.0,11.108,11.474,-27.526,0.0,0.0,0
822,27.799,100790.0,0.039,0.039,-0.823,-50.0,-55.0,-10.0,-3.845,-6.53,-7.263,0.0,0.0,0
823,27.799,100787.0,0.006,0.012,-0.809,-50.0,-55.0,-10.0,4.882,-0.427,-7.69,0.0,0.0,0
824,27.799,100782.0,0.098,0.042,-0.699,-50.0,-55.0,-10.0,-19.775,-17.028,-5.981,0.0,0.0,0
825,27.799,100790.0,0.054,-0.017,-0.801,-50.0,-55.0,-10.0,1.647,4.943,-5.737,0.0,0.0,0
826,27.799,100787.0,0.053,0.016,-0.616,-50.0,-55.0,-10.0,-15.075,3.906,0.976,0.0,0.0,0
827,27.799,100786.0,0.05,0.02,-0.621,-50.0,-55.0,-10.0,-11.779,-12.084,3.784,0.0,0.0,0
828,27.799,100788.0,0.003,0.004,-0.637,-50.0,-55.0,-10.0,-3.356,4.15,3.662,0.0,0.0,0
829,27.799,100788.0,0.095,0.023,-0.739,-50.0,-55.0,-10.0,-12.512,-6.408,-4.333,0.0,0.0,0
830,27.799,100791.0,0.089,0.046,-0.858,-50.0,-55.0,-10.0,-8.85,-4.516,1.037,0.0,0.0,0
831,27.799,100795.0,0.109,0.016,-0.809,-50.0,-55.0,-10.0,-6.469,1.342,-5.065,0.0,0.0,0
832,27.799,100790.0,0.093,0.02,-0.866,-50.0,-55.0,-10.0,-15.563,-2.441,1.098,0.0,0.0,0
833,27.799,100790.0,0.054,0.028,-0.874,-50.0,-55.0,-10.0,-8.361,2.197,4.089,0.0,0.0,0
834,27.799,100783.0,0.06,0.042,-0.895,-50.0,-55.0,-10.0,-4.882,-1.525,-2.502,0.0,0.0,0
835,27.799,100784.0,0.044,0.05,-1.002,-50.0,-55.0,-10.0,1.647,14.038,-8.3,0.0,0.0,0
836,27.799,100781.0,0.013,0.004,-1.047,-50.0,-55.0,-10.0,-9.948,4.272,2.685,0.0,0.0,0
837,27.799,100790.0,0.071,0.01,-1.012,-50.0,-55.0,-10.0,5.859,-4.76,1.586,0.0,0.0,0
838,27.799,100792.0,0.07,0.022,-0.903,-50.0,-55.0,-10.0,0.244,0.366,-0.305,0.0,0.0,0
839,27.799,100791.0,0.048,0.011,-0.906,-50.0,-55.0,-10.0,-17.761,-1.281,0.366,0.0,0.0,0
840,27.799,100789.0,0.023,-0.023,-0.943,-50.0,-55.0,-10.0,-8.605,1.403,-3.784,0.0,0.0,0
841,27.799,100795.0,0.048,-0.012,-0.971,-50.0,-55.0,-10.0,-2.075,-0.244,-4.333,0.0,0.0,0
842,27.799,100787.0,0.053,-0.048,-0.925,-50.0,-55.0,-10.0,-6.286,-5.859,-2.807,0.0,0.0,0
843,27.799,100791.0,0.034,-0.049,-0.955,-50.0,-55.0,-10.0,-2.075,0.122,1.159,0.0,0.0,0
844,27.799,100795.0,0.02,-0.06,-0.936,-50.0,-55.0,-10.0,-5.31,0.305,4.028,0.0,0.0,0
845,27.799,100802.0,0.026,-0.034,-0.939,-50.0,-55.0,-10.0,-7.141,-3.234,-0.671,0.0,0.0,0
846,27.799,100797.0,0.038,-0.027,-0.954,-50.0,-55.0,-10.0,-6.164,-0.793,-3.295,0.0,0.0,0
847,27.799,100799.0,0.028,-0.033,-0.953,-50.0,-55.0,-10.0,-3.967,-3.784,-1.892,0.0,0.0,0
848,27.799,100801.0,0.035,-0.019,-0.936,-50.0,-55.0,-10.0,-0.61,4.821,0.976,0.0,0.0,0
849,27.799,100799.0,0.033,-0.012,-0.927,-50.0,-55.0,-10.0,3.784,3.723,0.854,0.0,0.0,0
850,27.799,100796.0,0.041,-0.006,-0.938,-50.0,-55.0,-10.0,-6.652,4.638,-3.051,0.0,0.0,0
851,27.799,100800.0,0.036,-0.024,-0.918,-50.0,-55.0,-10.0,-7.019,-0.183,-3.967,0.0,0.0,0
852,27.799,100797.0,0.081,0.013,-0.94,-50.0,-55.0,-10.0,-2.014,-3.112,-2.99,0.0,0.0,0
853,27.799,100797.0,0.056,0.035,-0.97,-50.0,-55.0,-10.0,0.61,1.281,-6.469,0.0,0.0,0
854,27.799,100802.0,0.051,0.031,-0.95,-50.0,-55.0,-10.0,-6.225,0.183,-6.53,0.0,0.0,0
855,27.799,100800.0,0.043,0.001,-0.968,-50.0,-55.0,-10.0,-9.704,2.685,-2.441,0.0,0.0,0
856,27.799,100804.0,0.035,-0.006,-0.979,-50.0,-55.0,-10.0,-10.681,-4.272,-0.183,0.0,0.0,0
857,27.799,100801.0,0.03,0.0,-0.986,-50.0,-55.0,-10.0,-2.929,-2.563,1.77,0.0,0.0,0
858,27.799,100807.0,0.044,-0.002,-0.988,-50.0,-55.0,-10.0,-0.549,-3.662,0.122,0.0,0.0,0
859,27.799,100812.0,0.036,-0.023,-0.971,-50.0,-55.0,-10.0,-6.774,-3.356,3.356,0.0,0.0,0
860,27.799,100807.0,0.037,-0.036,-0.997,-50.0,-55.0,-10.0,-1.77,-0.61,4.333,0.0,0.0,0
861,27.799,100813.0,0.029,-0.052,-0.997,-50.0,-55.0,-10.0,-2.258,-1.953,2.624,0.0,0.0,0
862,27.799,100814.0,0.022,-0.041,-1.003,-50.0,-55.0,-10.0,-2.868,0.854,0.732,0.0,0.0,0
863,27.799,100820.0,0.041,-0.026,-0.991,-50.0,-55.0,-10.0,-1.22,-0.976,-0.061,0.0,0.0,0
864,27.899,100821.0,0.024,-0.025,-0.999,-50.0,-55.0,-10.0,-2.868,0.61,0.671,0.0,0.0,0
865,27.899,100826.0,0.02,-0.019,-0.993,-50.0,-55.0,-10.0,-6.164,-3.051,-1.464,0.0,0.0,0
866,27.899,100822.0,0.041,-0.017,-1.004,-50.0,-55.0,-10.0,-6.958,-1.403,0.305,0.0,0.0,0
867,27.799,100821.0,0.043,-0.016,-0.991,-50.0,-55.0,-10.0,-6.042,-0.488,-0.122,0.0,0.0,0
868,27.899,100824.0,0.049,0.0,-1.005,-50.0,-55.0,-10.0,-6.896,-3.356,2.624,0.0,0.0,0
869,27.799,100823.0,0.045,0.007,-0.996,-50.0,-55.0,-10.0,-7.812,-3.54,0.0,0.0,0.0,0
870,27.799,100831.0,0.062,-0.003,-0.976,-50.0,-55.0,-10.0,-5.432,-4.699,-0.549,0.0,0.0,0
871,27.799,100823.0,0.063,0.004,-0.985,-50.0,-55.0,-10.0,-5.676,-2.685,-1.525,0.0,0.0,0
872,27.799,100824.0,0.067,0.014,-1.001,-50.0,-55.0,-10.0,-7.019,-3.234,-1.77,0.0,0.0,0
873,27.799,100824.0,0.062,0.012,-0.985,-50.0,-55.0,-10.0,-5.187,-2.136,0.61,0.0,0.0,0
874,27.899,100830.0,0.061,0.009,-0.998,-50.0,-55.0,-10.0,-3.173,-2.929,-2.075,0.0,0.0,0
875,27.799,100829.0,0.062,-0.002,-0.984,-50.0,-55.0,-10.0,-1.831,-0.122,0.244,0.0,0.0,0
876,27.799,100833.0,0.076,0.002,-0.986,-50.0,-55.0,-10.0,-1.281,-5.798,3.845,0.0,0.0,0
877,27.799,100835.0,0.067,-0.004,-1.008,-50.0,-55.0,-10.0,-1.525,-4.76,5.615,0.0,0.0,0
878,27.799,100844.0,0.072,-0.01,-0.982,-50.0,-55.0,-10.0,-4.638,-1.831,0.244,0.0,0.0,0
879,27.899,100843.0,0.062,-0.017,-1.008,-50.0,-55.0,-10.0,-7.202,-3.356,-0.976,0.0,0.0,0
880,27.799,100845.0,0.082,-0.021,-0.954,-50.0,-55.0,-10.0,-6.896,-2.624,2.319,0.0,0.0,0
881,27.799,100836.0,0.052,-0.033,-1.007,-50.0,-55.0,-10.0,-3.234,0.366,5.004,0.0,0.0,0
882,27.799,100848.0,0.055,-0.024,-0.98,-50.0,-55.0,-10.0,-3.54,-1.403,5.859,0.0,0.0,0
883,27.799,100853.0,0.068,-0.019,-0.991,-50.0,-55.0,-10.0,-3.967,0.854,3.54,0.0,0.0,0
884,27.899,100852.0,0.075,-0.035,-0.994,-50.0,-55.0,-10.0,-5.432,-1.892,1.464,0.0,0.0,0
885,27.899,100856.0,0.067,-0.041,-0.984,-50.0,-55.0,-10.0,-7.995,0.183,5.92,0.0,0.0,0
886,27.799,100849.0,0.059,-0.025,-0.99,-50.0,-55.0,-10.0,-5.004,1.831,2.746,0.0,0.0,0
887,27.899,100850.0,0.087,0.006,-0.99,-50.0,-55.0,-10.0,-5.004,-1.342,-2.38,0.0,0.0,0
888,27.799,100850.0,0.076,0.02,-0.968,-50.0,-55.0,-10.0,-0.122,2.624,0.244,0.0,0.0,0
889,27.799,100854.0,0.077,0.021,-1.005,-50.0,-55.0,-10.0,0.976,-1.464,3.112,0.0,0.0,0
890,27.899,100856.0,0.078,0.024,-0.994,-50.0,-55.0,-10.0,-3.173,-0.671,0.732,0.0,0.0,0
891,27.799,100861.0,0.084,0.008,-0.994,-50.0,-55.0,-10.0,-6.896,-0.427,-1.708,0.0,0.0,0
892,27.799,100868.0,0.094,0.011,-1.011,-50.0,-55.0,-10.0,-6.347,-2.685,-2.624,0.0,0.0,0
893,27.899,100862.0,0.089,0.013,-0.998,-50.0,-55.0,-10.0,-6.347,-1.586,-3.051,0.0,0.0,0
894,27.799,100863.0,0.08,0.001,-0.987,-50.0,-55.0,-10.0,-5.554,0.549,0.549,0.0,0.0,0
895,27.899,100866.0,0.081,0.018,-0.968,-50.0,-55.0,-10.0,-1.403,-3.295,1.037,0.0,0.0,0
896,27.899,100865.0,0.068,0.027,-0.979,-50.0,-55.0,-10.0,-4.028,2.99,1.525,0.0,0.0,0
897,27.899,100865.0,0.067,0.003,-1.001,-50.0,-55.0,-10.0,-3.234,0.793,-3.723,0.0,0.0,0
898,27.799,100862.0,0.068,0.0,-0.994,-50.0,-55.0,-10.0,-2.441,-1.403,-4.028,0.0,0.0,0
899,27.799,100868.0,0.056,-0.019,-0.991,-50.0,-55.0,-10.0,-8.544,0.488,-1.647,0.0,0.0,0
900,27.799,100865.0,0.053,-0.016,-1.016,-50.0,-55.0,-10.0,-2.258,-1.708,0.671,0.0,0.0,0
901,27.899,100874.0,0.064,-0.011,-0.986,-50.0,-55.0,-10.0,-3.234,0.366,1.281,0.0,0.0,0
902,27.799,100875.0,0.062,-0.013,-1.004,-50.0,-55.0,-10.0,-7.69,-1.892,-1.831,0.0,0.0,0
903,27.799,100870.0,0.066,-0.008,-0.984,-50.0,-55.0,-10.0,-3.906,-0.366,-0.915,0.0,0.0,0
904,27.799,100866.0,0.057,-0.01,-0.997,-50.0,-55.0,-10.0,-7.568,-0.244,-1.77,0.0,0.0,0
905,27.799,100867.0,0.05,-0.016,-1.01,-50.0,-55.0,-10.0,-6.103,0.671,0.061,0.0,0.0,0
906,27.899,100868.0,0.042,-0.028,-0.998,-50.0,-55.0,-10.0,-5.187,0.671,1.281,0.0,0.0,0
907,27.799,100874.0,0.055,-0.032,-1.002,-50.0,-55.0,-10.0,-7.873,-2.868,0.61,0.0,0.0,0
908,27.799,100872.0,0.043,-0.021,-0.997,-50.0,-55.0,-10.0,-6.591,-0.488,-0.854,0.0,0.0,0
909,27.899,100876.0,0.058,-0.008,-0.999,-50.0,-55.0,-10.0,-6.469,-0.61,-0.854,0.0,0.0,0
910,27.899,100878.0,0.055,-0.014,-0.995,-50.0,-55.0,-10.0,-5.737,-0.671,0.305,0.0,0.0,0
911,27.799,100881.0,0.066,-0.01,-0.977,-50.0,-55.0,-10.0,-3.479,0.183,-0.671,0.0,0.0,0
912,27.799,100881.0,0.061,-0.01,-0.972,-50.0,-55.0,-10.0,-7.08,-1.098,-0.305,0.0,0.0,0
913,27.899,100882.0,0.062,-0.012,-1.005,-50.0,-55.0,-10.0,-3.967,0.366,2.136,0.0,0.0,0
914,27.899,100880.0,0.069,-0.011,-0.981,-50.0,-55.0,-10.0,-2.868,0.305,2.014,0.0,0.0,0
915,27.899,100888.0,0.062,-0.012,-0.995,-50.0,-55.0,-10.0,-6.286,-1.342,1.098,0.0,0.0,0
916,27.899,100891.0,0.065,-0.007,-1.009,-50.0,-55.0,-10.0,-3.295,0.854,1.708,0.0,0.0,0
917,27.899,100895.0,0.071,-0.017,-1.013,-50.0,-55.0,-10.0,-5.004,-1.159,-0.732,0.0,0.0,0
918,27.899,100895.0,0.078,-0.014,-0.981,-50.0,-55.0,-10.0,-3.417,-2.746,0.244,0.0,0.0,0
919,27.899,100898.0,0.049,-0.016,-0.998,-50.0,-55.0,-10.0,-7.507,-0.427,0.244,0.0,0.0,0
920,27.899,100899.0,0.051,-0.018,-0.983,-50.0,-55.0,-10.0,-2.746,-0.854,-0.915,0.0,0.0,0
921,27.899,100894.0,0.055,-0.03,-0.976,-50.0,-55.0,-10.0,-4.272,-1.525,-0.915,0.0,0.0,0
922,27.899,100898.0,0.047,-0.029,-0.998,-50.0,-55.0,-10.0,-1.159,-0.976,1.22,0.0,0.0,0
923,27.899,100897.0,0.05,-0.022,-0.995,-50.0,-55.0,-10.0,-1.831,-1.342,2.624,0.0,0.0,0
924,27.799,100899.0,0.054,-0.036,-0.997,-50.0,-55.0,-10.0,-4.882,-0.183,1.464,0.0,0.0,0
925,27.899,100900.0,0.051,-0.039,-1.004,-50.0,-55.0,-10.0,-6.164,0.061,0.976,0.0,0.0,0
926,27.899,100904.0,0.049,-0.02,-0.989,-50.0,-55.0,-10.0,-4.028,1.22,-0.122,0.0,0.0,0
927,27.899,100905.0,0.049,-0.006,-0.989,-50.0,-55.0,-10.0,-3.234,-0.488,-0.488,0.0,0.0,0
928,27.899,100908.0,0.049,-0.011,-1.003,-50.0,-55.0,-10.0,-3.295,1.708,2.99,0.0,0.0,0
929,27.899,100907.0,0.047,-0.013,-1.035,-50.0,-55.0,-10.0,-5.92,2.807,0.488,0.0,0.0,0
930,27.899,100901.0,0.052,-0.021,-1.06,-50.0,-55.0,-10.0,-4.455,2.685,0.488,0.0,0.0,0
931,27.899,100910.0,0.065,0.001,-1.068,-50.0,-55.0,-10.0,-3.234,0.305,1.403,0.0,0.0,0
932,27.899,100906.0,0.059,-0.008,-1.085,-50.0,-55.0,-10.0,-6.347,-1.037,1.281,0.0,0.0,0
933,27.899,100911.0,0.057,-0.005,-1.066,-50.0,-55.0,-10.0,-3.173,-3.906,2.136,0.0,0.0,0
934,27.899,100913.0,0.046,-0.002,-1.068,-50.0,-55.0,-10.0,-3.173,0.488,2.319,0.0,0.0,0
935,27.899,100908.0,0.034,-0.005,-1.068,-50.0,-55.0,-10.0,-5.798,-1.77,0.793,0.0,0.0,0
936,27.899,100918.0,0.047,-0.008,-1.066,-50.0,-55.0,-10.0,-2.136,-1.403,1.342,0.0,0.0,0
937,27.899,100912.0,0.052,-0.005,-1.071,-50.0,-55.0,-10.0,-4.394,-0.549,2.319,0.0,0.0,0
938,27.899,100915.0,0.055,-0.01,-1.074,-50.0,-55.0,-10.0,-4.272,-3.295,0.793,0.0,0.0,0
939,27.899,100914.0,0.051,-0.008,-1.059,-50.0,-55.0,-10.0,-5.187,-1.22,0.732,0.0,0.0,0
940,27.899,100913.0,0.05,-0.019,-1.067,-50.0,-55.0,-10.0,-6.103,-1.708,0.366,0.0,0.0,0
941,27.899,100918.0,0.062,-0.009,-1.053,-50.0,-55.0,-10.0,-3.662,-2.502,1.342,0.0,0.0,0
942,27.899,100921.0,0.043,-0.016,-1.064,-50.0,-55.0,-10.0,-6.347,-0.976,0.061,0.0,0.0,0
943,27.899,100917.0,0.064,-0.012,-1.068,-50.0,-55.0,-10.0,-3.662,-0.366,0.488,0.0,0.0,0
944,27.899,100917.0,0.065,-0.019,-1.067,-50.0,-55.0,-10.0,-4.516,0.61,1.525,0.0,0.0,0
945,27.899,100924.0,0.059,-0.018,-1.067,-50.0,-55.0,-10.0,-3.356,-1.831,2.319,0.0,0.0,0
946,27.899,100923.0,0.056,-0.017,-1.072,-50.0,-55.0,-10.0,-5.065,-1.464,0.732,0.0,0.0,0
947,27.899,100923.0,0.056,-0.022,-1.067,-50.0,-55.0,-10.0,-6.164,-2.319,0.305,0.0,0.0,0
948,27.899,100921.0,0.054,-0.036,-1.051,-50.0,-55.0,-10.0,-3.967,-4.821,1.831,0.0,0.0,0
949,27.899,100927.0,0.051,-0.02,-1.081,-50.0,-55.0,-10.0,-1.342,-1.037,-0.122,0.0,0.0,0
950,27.899,100923.0,0.059,-0.026,-1.072,-50.0,-55.0,-10.0,-5.615,1.22,-0.915,0.0,0.0,0
951,27.899,100921.0,0.051,-0.041,-1.069,-50.0,-55.0,-10.0,-6.591,0.366,-5.493,0.0,0.0,0
952,27.899,100918.0,0.061,-0.021,-1.081,-50.0,-55.0,-10.0,-3.295,-4.76,-4.943,0.0,0.0,0
953,27.899,100921.0,0.063,-0.015,-1.049,-50.0,-55.0,-10.0,-2.685,-4.272,-5.065,0.0,0.0,0
954,27.899,100918.0,0.049,-0.022,-1.044,-50.0,-55.0,-10.0,-5.798,1.098,-12.878,0.0,0.0,0
955,27.899,100920.0,0.031,-0.022,-1.06,-50.0,-55.0,-10.0,-8.3,-3.051,-20.263,0.0,0.0,0
956,27.899,100917.0,0.078,-0.04,-1.028,-50.0,-55.0,-10.0,-10.192,-0.549,-24.597,0.0,0.0,0
957,27.899,100929.0,0.083,-0.028,-1.034,-50.0,-55.0,-10.0,-2.746,-4.211,-18.005,0.0,0.0,0
958,27.899,100921.0,0.097,-0.037,-1.01,-50.0,-55.0,-10.0,-0.793,-5.554,-13.305,0.0,0.0,0
959,27.899,100927.0,0.092,-0.052,-1.003,-50.0,-55.0,-10.0,-8.178,-0.488,-11.535,0.0,0.0,0
960,27.899,100927.0,0.124,-0.028,-1.009,-50.0,-55.0,-10.0,-0.671,-4.211,-1.464,0.0,0.0,0
961,27.899,100925.0,0.129,-0.025,-0.979,-50.0,-55.0,-10.0,1.525,-5.981,0.976,0.0,0.0,0
962,27.899,100923.0,0.124,-0.022,-0.969,-50.0,-55.0,-10.0,0.732,2.136,-1.159,0.0,0.0,0
963,27.899,100921.0,0.125,-0.039,-0.973,-50.0,-55.0,-10.0,1.953,-0.793,2.197,0.0,0.0,0
964,27.899,100920.0,0.122,-0.053,-0.987,-50.0,-55.0,-10.0,2.685,-1.708,11.535,0.0,0.0,0
965,27.899,100921.0,0.106,-0.017,-1.005,-50.0,-55.0,-10.0,-4.882,-3.723,10.62,0.0,0.0,0
966,27.899,100928.0,0.093,0.01,-0.983,-50.0,-55.0,-10.0,-12.023,0.244,4.211,0.0,0.0,0
967,27.899,100927.0,0.045,0.005,-0.984,-50.0,-55.0,-10.0,-24.23,4.577,0.122,0.0,0.0,0
968,27.899,100917.0,0.083,0.021,-1.063,-50.0,-55.0,-10.0,2.929,9.033,4.028,0.0,0.0,0
969,27.899,100925.0,0.017,0.021,-0.967,-50.0,-55.0,-10.0,-0.671,-6.835,-1.953,0.0,0.0,0
970,27.899,100924.0,0.064,-0.007,-0.985,-50.0,-55.0,-10.0,-6.896,-3.051,-1.708,0.0,0.0,0
971,27.899,100925.0,0.04,-0.011,-0.997,-50.0,-55.0,-10.0,-0.732,2.197,-3.051,0.0,0.0,0
972,27.899,100919.0,0.026,0.003,-1.038,-50.0,-55.0,-10.0,-9.033,4.089,-7.263,0.0,0.0,0
973,27.899,100919.0,0.033,-0.047,-0.955,-50.0,-55.0,-10.0,-5.798,2.319,-8.605,0.0,0.0,0
974,27.899,100926.0,0.052,-0.017,-1.034,-50.0,-55.0,-10.0,-2.868,-5.737,-12.451,0.0,0.0,0
975,27.899,100921.0,0.037,-0.039,-0.955,-50.0,-55.0,-10.0,3.295,0.732,-23.986,0.0,0.0,0
976,27.899,100925.0,0.054,-0.046,-0.99,-50.0,-55.0,-10.0,-3.662,-3.723,-28.808,0.0,0.0,0
977,27.899,100925.0,0.044,-0.049,-1.035,-50.0,-55.0,-10.0,-10.253,-9.521,-25.268,0.0,0.0,0
978,27.899,100925.0,0.122,0.001,-1.013,-50.0,-55.0,-10.0,2.258,-9.765,-22.583,0.0,0.0,0
979,27.899,100920.0,0.127,0.006,-0.993,-50.0,-55.0,-10.0,0.366,-10.803,-15.869,0.0,0.0,0
980,27.899,100926.0,0.136,-0.021,-0.949,-50.0,-55.0,-10.0,-7.08,-11.047,-8.666,0.0,0.0,0
981,27.899,100924.0,0.15,-0.013,-0.956,-50.0,-55.0,-10.0,5.065,-7.263,-4.882,0.0,0.0,0
982,27.899,100913.0,0.145,-0.012,-0.945,-50.0,-55.0,-10.0,-4.272,-6.958,-3.54,0.0,0.0,0
983,27.899,100913.0,0.136,0.043,-0.976,-50.0,-55.0,-10.0,1.342,0.0,-6.042,0.0,0.0,0
984,27.899,100900.0,0.134,0.019,-1.0,-50.0,-55.0,-10.0,-9.765,4.333,1.098,0.0,0.0,0
985,27.899,100909.0,0.122,-0.011,-0.945,-50.0,-55.0,-10.0,-11.657,0.915,0.061,0.0,0.0,0
986,27.899,100906.0,0.109,0.012,-0.953,-50.0,-55.0,-10.0,-13.549,0.732,-4.028,0.0,0.0,0
987,27.899,100916.0,0.119,-0.006,-0.961,-50.0,-55.0,-10.0,-12.023,11.962,2.075,0.0,0.0,0
988,27.899,100911.0,0.068,-0.011,-1.042,-50.0,-55.0,-10.0,-3.356,7.446,-0.976,0.0,0.0,0
989,27.899,100908.0,0.081,-0.056,-0.947,-50.0,-55.0,-10.0,-10.681,-2.319,-1.464,0.0,0.0,0
990,27.899,100905.0,0.066,-0.015,-1.124,-50.0,-55.0,-10.0,6.469,16.784,5.004,0.0,0.0,0
991,27.899,100910.0,0.019,-0.077,-0.96,-50.0,-55.0,-10.0,-2.746,3.906,-0.61,0.0,0.0,0
992,27.899,100908.0,0.046,-0.11,-0.953,-50.0,-55.0,-10.0,-13.061,-0.732,-11.413,0.0,0.0,0
993,27.899,100903.0,0.05,-0.104,-0.979,-50.0,-55.0,-10.0,-3.051,-1.647,-0.671,0.0,0.0,0
994,27.899,100906.0,0.03,-0.115,-0.975,-50.0,-55.0,-10.0,-3.112,-2.441,-1.892,0.0,0.0,0
995,27.899,100913.0,0.027,-0.103,-0.983,-50.0,-55.0,-10.0,-0.732,-2.624,-3.845,0.0,0.0,0
996,27.899,100902.0,0.041,-0.073,-1.001,-50.0,-55.0,-10.0,4.577,-10.986,-4.76,0.0,0.0,0
997,27.899,100909.0,0.083,-0.029,-0.996,-50.0,-55.0,-10.0,0.488,-5.371,-8.483,0.0,0.0,0
998,27.899,100912.0,0.078,-0.011,-1.006,-50.0,-55.0,-10.0,-3.784,-5.004,-8.178,0.0,0.0,0
999,27.899,100912.0,0.094,-0.003,-1.011,-50.0,-55.0,-10.0,4.089,-0.244,-10.742,0.0,0.0,0
1000,27.899,100907.0,0.163,-0.004,-0.943,-50.0,-55.0,-10.0,-4.821,-5.493,-12.268,0.0,0.0,0
1001,27.899,100904.0,0.183,-0.054,-0.902,-50.0,-55.0,-10.0,-5.981,-2.99,-16.601,0.0,0.0,0
1002,27.899,100907.0,0.157,-0.059,-0.96,-50.0,-55.0,-10.0,11.169,3.54,-17.272,0.0,0.0,0
1003,27.899,100908.0,0.148,-0.031,-0.971,-50.0,-55.0,-10.0,6.652,-4.333,-22.766,0.0,0.0,0
1004,27.899,100900.0,0.179,-0.02,-0.898,-50.0,-55.0,-10.0,3.723,0.122,-28.32,0.0,0.0,0
1005,27.899,100903.0,0.134,0.05,-1.058,-50.0,-55.0,-10.0,0.854,-1.953,-31.066,0.0,0.0,0
1006,27.899,100903.0,0.141,-0.016,-0.95,-50.0,-55.0,-10.0,-25.878,-10.742,-30.883,0.0,0.0,0
1007,27.899,100904.0,0.066,0.037,-1.11,-50.0,-55.0,-10.0,-2.258,4.028,-36.621,0.0,0.0,0
1008,27.899,100909.0,0.127,0.037,-1.15,-50.0,-55.0,-10.0,2.441,15.686,-32.47,0.0,0.0,0
1009,27.899,100905.0,0.019,0.007,-0.887,-50.0,-55.0,-10.0,10.253,6.042,-40.527,0.0,0.0,0
1010,27.899,100903.0,0.026,-0.041,-0.858,-50.0,-55.0,-10.0,-19.409,-9.704,-53.71,0.0,0.0,0
1011,27.899,100901.0,0.094,0.007,-0.888,-50.0,-55.0,-10.0,15.93,-11.474,-70.129,0.0,0.0,0
1012,27.899,100903.0,0.053,0.04,-0.959,-50.0,-55.0,-10.0,3.54,-26.916,-92.895,0.0,0.0,0
1013,27.899,100900.0,0.186,0.183,-1.038,-50.0,-55.0,-10.0,21.911,8.056,-132.141,0.0,0.0,0
1014,27.899,100900.0,0.067,0.196,-1.257,-50.0,-55.0,-10.0,20.874,34.912,-129.15,0.0,0.0,0
1015,27.899,100902.0,0.127,0.034,-1.053,-50.0,-55.0,-10.0,-7.934,-18.92,-149.23,0.0,0.0,0
1016,27.899,100905.0,0.104,0.058,-0.928,-50.0,-55.0,-10.0,3.784,-24.719,-120.849,0.0,0.0,0
1017,28.0,100902.0,0.134,0.121,-0.787,-50.0,-55.0,-10.0,42.175,-5.493,-112.67,0.0,0.0,0
1018,27.899,100908.0,0.068,-0.124,-0.946,-50.0,-55.0,-10.0,-29.907,-1.159,-102.6,0.0,0.0,0
1019,27.899,100906.0,-0.006,-0.009,-1.097,-50.0,-55.0,-10.0,26.123,-20.202,-103.454,0.0,0.0,0
1020,27.899,100907.0,0.032,0.235,-1.103,-50.0,-55.0,-10.0,0.671,-48.156,-92.041,0.0,0.0,0
1021,27.899,100909.0,0.12,0.01,-0.987,-50.0,-55.0,-10.0,21.972,31.982,-100.28,0.0,0.0,0
1022,27.899,100912.0,-0.033,-0.125,-0.993,-50.0,-55.0,-10.0,16.235,2.502,-87.036,0.0,0.0,0
1023,27.899,100915.0,-0.045,-0.078,-0.877,-50.0,-55.0,-10.0,28.686,-3.356,-89.05,0.0,0.0,0
1024,27.899,100912.0,0.057,-0.091,-0.952,-50.0,-55.0,-10.0,-17.395,-12.023,-88.5,0.0,0.0,0
1025,27.899,100910.0,0.094,0.058,-1.029,-50.0,-55.0,-10.0,2.563,5.249,-83.679,0.0,0.0,0
1026,27.899,100913.0,0.095,0.0,-1.119,-50.0,-55.0,-10.0,30.578,5.065,-72.692,0.0,0.0,0
1027,27.899,100907.0,0.161,-0.073,-0.995,-50.0,-55.0,-10.0,10.253,19.714,-66.162,0.0,0.0,0
1028,27.899,100906.0,0.171,0.042,-1.019,-50.0,-55.0,-10.0,2.868,-4.699,-45.532,0.0,0.0,0
1029,27.899,100900.0,0.121,0.05,-0.921,-50.0,-55.0,-10.0,26.367,-5.432,-46.813,0.0,0.0,0
1030,27.899,100911.0,0.02,0.069,-0.981,-50.0,-55.0,-10.0,-8.056,-15.991,-48.034,0.0,0.0,0
1031,27.899,100910.0,0.079,-0.015,-0.98,-50.0,-55.0,-10.0,-0.244,4.333,-40.1,0.0,0.0,0
1032,27.899,100907.0,0.012,-0.01,-0.937,-50.0,-55.0,-10.0,-0.488,-11.474,-50.537,0.0,0.0,0
1033,27.899,100905.0,0.072,-0.034,-1.048,-50.0,-55.0,-10.0,1.22,18.432,-50.354,0.0,0.0,0
1034,27.899,100901.0,0.067,-0.092,-0.958,-50.0,-55.0,-10.0,-12.634,15.563,-61.157,0.0,0.0,0
1035,27.899,100904.0,-0.008,-0.142,-0.915,-50.0,-55.0,-10.0,-10.986,-5.493,-66.101,0.0,0.0,0
1036,27.899,100909.0,0.024,-0.048,-0.876,-50.0,-55.0,-10.0,10.925,-16.296,-73.608,0.0,0.0,0
1037,27.899,100912.0,0.022,-0.041,-0.924,-50.0,-55.0,-10.0,1.159,-19.897,-107.788,0.0,0.0,0
1038,27.899,100911.0,0.058,-0.041,-1.202,-50.0,-55.0,-10.0,14.282,8.361,-116.577,0.0,0.0,0
1039,27.899,100906.0,0.131,-0.182,-1.148,-50.0,-55.0,-10.0,18.371,-14.343,-102.661,0.0,0.0,0
1040,27.899,100909.0,0.104,-0.001,-1.266,-50.0,-55.0,-10.0,17.395,41.503,-84.777,0.0,0.0,0
1041,27.899,100903.0,0.071,-0.016,-1.074,-50.0,-55.0,-10.0,13.244,16.906,-75.866,0.0,0.0,0
1042,27.899,100906.0,0.066,0.012,-0.758,-50.0,-55.0,-10.0,-7.446,-30.334,-98.266,0.0,0.0,0
1043,27.899,100905.0,-0.002,-0.018,-0.905,-50.0,-55.0,-10.0,-10.498,-18.371,-92.773,0.0,0.0,0
1044,27.899,100908.0,0.002,-0.083,-0.968,-50.0,-55.0,-10.0,3.784,-0.671,-85.205,0.0,0.0,0
1045,27.899,100901.0,0.097,-0.047,-1.032,-50.0,-55.0,-10.0,-4.211,3.173,-49.865,0.0,0.0,0
1046,27.899,100908.0,0.136,0.087,-1.041,-50.0,-55.0,-10.0,15.991,-0.793,-54.321,0.0,0.0,0
1047,27.899,100906.0,0.169,0.004,-1.012,-50.0,-55.0,-10.0,26.062,11.962,-60.485,0.0,0.0,0
1048,27.899,100904.0,-0.003,-0.074,-1.088,-50.0,-55.0,-10.0,26.123,0.488,-76.354,0.0,0.0,0
1049,27.899,100903.0,0.152,-0.099,-0.925,-50.0,-55.0,-10.0,-9.094,-1.22,-68.542,0.0,0.0,0
1050,27.899,100906.0,0.029,-0.088,-0.921,-50.0,-55.0,-10.0,-8.666,7.507,-53.588,0.0,0.0,0
1051,27.899,100905.0,0.0,-0.022,-0.947,-50.0,-55.0,-10.0,10.253,-18.737,-56.64,0.0,0.0,0
1052,27.899,100907.0,0.142,0.031,-0.899,-50.0,-55.0,-10.0,-5.432,-7.69,-47.668,0.0,0.0,0
1053,27.899,100902.0,0.086,0.075,-1.048,-50.0,-55.0,-10.0,-3.967,-17.395,-50.231,0.0,0.0,0
1054,27.899,100914.0,-0.045,0.021,-1.235,-50.0,-55.0,-10.0,12.329,10.803,-33.813,0.0,0.0,0
1055,27.899,100899.0,0.072,-0.022,-0.965,-50.0,-55.0,-10.0,5.249,-20.08,-30.334,0.0,0.0,0
1056,27.899,100907.0,0.056,0.017,-0.963,-50.0,-55.0,-10.0,11.535,8.3,-46.752,0.0,0.0,0
1057,27.899,100908.0,0.113,0.023,-0.875,-50.0,-55.0,-10.0,-10.009,-3.845,-40.71,0.0,0.0,0
1058,27.899,100907.0,0.061,-0.006,-0.928,-50.0,-55.0,-10.0,-12.207,-5.126,-33.752,0.0,0.0,0
1059,27.899,100904.0,0.122,0.048,-0.956,-50.0,-55.0,-10.0,-9.338,18.066,-27.099,0.0,0.0,0
1060,27.899,100908.0,0.109,0.024,-1.099,-50.0,-55.0,-10.0,7.507,-4.76,-20.568,0.0,0.0,0
1061,27.899,100909.0,0.099,0.01,-1.107,-50.0,-55.0,-10.0,24.658,8.605,-18.432,0.0,0.0,0
1062,27.899,100904.0,0.004,-0.093,-0.989,-50.0,-55.0,-10.0,7.751,-9.826,-1.708,0.0,0.0,0
1063,27.899,100908.0,0.084,-0.035,-1.002,-50.0,-55.0,-10.0,17.456,29.968,-17.761,0.0,0.0,0
1064,27.899,100910.0,0.085,-0.013,-0.957,-50.0,-55.0,-10.0,-4.15,-2.441,-25.39,0.0,0.0,0
1065,27.899,100909.0,0.131,-0.032,-0.894,-50.0,-55.0,-10.0,-21.972,-16.235,-25.878,0.0,0.0,0
1066,27.899,100905.0,0.146,-0.016,-0.884,-50.0,-55.0,-10.0,-15.686,-17.15,-20.324,0.0,0.0,0
1067,27.899,100914.0,0.107,-0.02,-1.043,-50.0,-55.0,-10.0,-0.122,-13.488,-25.329,0.0,0.0,0
1068,27.899,100903.0,0.12,0.039,-1.05,-50.0,-55.0,-10.0,2.746,-9.094,-21.606,0.0,0.0,0
1069,27.899,100909.0,0.055,0.029,-1.092,-50.0,-55.0,-10.0,1.098,7.751,-34.606,0.0,0.0,0
1070,27.899,100907.0,0.07,0.057,-1.02,-50.0,-55.0,-10.0,7.629,16.357,-31.677,0.0,0.0,0
1071,27.899,100905.0,0.07,0.046,-0.82,-50.0,-55.0,-10.0,-4.76,-7.019,-33.02,0.0,0.0,0
1072,27.899,100904.0,0.109,0.014,-0.85,-50.0,-55.0,-10.0,-21.423,-5.126,-24.536,0.0,0.0,0
1073,27.899,100907.0,0.118,0.025,-0.986,-50.0,-55.0,-10.0,-8.911,-1.037,-19.653,0.0,0.0,0
1074,27.899,100910.0,0.085,0.038,-1.031,-50.0,-55.0,-10.0,-16.54,-6.286,-9.277,0.0,0.0,0
1075,27.899,100910.0,0.064,-0.041,-1.148,-50.0,-55.0,-10.0,18.798,8.789,-7.995,0.0,0.0,0
1076,27.899,100912.0,0.081,-0.083,-1.006,-50.0,-55.0,-10.0,7.324,-16.784,-15.991,0.0,0.0,0
1077,27.899,100896.0,0.099,-0.049,-0.985,-50.0,-55.0,-10.0,21.179,14.709,-7.446,0.0,0.0,0
1078,27.899,100905.0,0.119,-0.056,-0.884,-50.0,-55.0,-10.0,-0.732,2.014,0.854,0.0,0.0,0
1079,27.899,100909.0,0.138,-0.044,-0.813,-50.0,-55.0,-10.0,-6.164,-8.361,5.187,0.0,0.0,0
1080,27.899,100905.0,0.202,-0.019,-0.911,-50.0,-55.0,-10.0,-18.005,-5.493,8.056,0.0,0.0,0
1081,27.899,100907.0,0.16,-0.006,-1.025,-50.0,-55.0,-10.0,-12.817,-4.638,11.23,0.0,0.0,0
1082,27.899,100910.0,0.185,0.025,-1.013,-50.0,-55.0,-10.0,-19.531,-2.929,-5.859,0.0,0.0,0
1083,27.899,100906.0,0.065,-0.002,-1.144,-50.0,-55.0,-10.0,7.141,7.873,-4.943,0.0,0.0,0
1084,27.899,100909.0,0.095,0.02,-1.046,-50.0,-55.0,-10.0,20.08,5.737,-7.751,0.0,0.0,0
1085,27.899,100909.0,0.146,0.033,-0.845,-50.0,-55.0,-10.0,10.925,-6.713,1.953,0.0,0.0,0
1086,27.899,100904.0,0.143,0.043,-0.759,-50.0,-55.0,-10.0,-14.709,-20.69,2.929,0.0,0.0,0
1087,27.899,100900.0,0.17,0.017,-0.92,-50.0,-55.0,-10.0,-36.132,-21.118,19.348,0.0,0.0,0
1088,27.899,100905.0,0.16,0.016,-1.137,-50.0,-55.0,-10.0,-26.672,-19.653,29.357,0.0,0.0,0
1089,27.899,100909.0,0.136,-0.006,-1.184,-50.0,-55.0,-10.0,10.864,6.469,25.207,0.0,0.0,0
1090,27.899,100908.0,0.099,0.029,-0.905,-50.0,-55.0,-10.0,-13.366,-15.441,11.047,0.0,0.0,0
1091,27.899,100907.0,0.14,0.024,-0.971,-50.0,-55.0,-10.0,3.906,27.526,8.85,0.0,0.0,0
1092,27.899,100897.0,0.196,-0.001,-0.848,-50.0,-55.0,-10.0,-8.056,-1.708,17.822,0.0,0.0,0
1093,27.899,100905.0,0.212,-0.02,-0.833,-50.0,-55.0,-10.0,-11.413,-11.352,13.671,0.0,0.0,0
1094,27.899,100914.0,0.241,-0.002,-0.883,-50.0,-55.0,-10.0,-9.521,-16.052,24.353,0.0,0.0,0
1095,27.899,100907.0,0.13,-0.008,-1.034,-50.0,-55.0,-10.0,17.211,-8.728,5.981,0.0,0.0,0
1096,27.899,100904.0,0.151,0.055,-1.202,-50.0,-55.0,-10.0,6.103,6.164,10.131,0.0,0.0,0
1097,27.899,100913.0,0.182,0.066,-1.023,-50.0,-55.0,-10.0,-1.037,2.563,10.803,0.0,0.0,0
1098,27.899,100910.0,0.058,0.033,-0.999,-50.0,-55.0,-10.0,0.854,2.99,-6.408,0.0,0.0,0
1099,27.899,100909.0,0.185,0.057,-0.81,-50.0,-55.0,-10.0,-10.803,-7.263,2.014,0.0,0.0,0
1100,27.899,100916.0,0.174,0.039,-0.862,-50.0,-55.0,-10.0,-21.545,-22.46,12.023,0.0,0.0,0
1101,27.899,100906.0,0.203,0.001,-0.984,-50.0,-55.0,-10.0,-2.441,-10.131,31.921,0.0,0.0,0
1102,27.899,100903.0,0.115,0.006,-0.92,-50.0,-55.0,-10.0,15.075,4.76,35.278,0.0,0.0,0
1103,27.899,100910.0,0.121,-0.046,-0.894,-50.0,-55.0,-10.0,-13.0,-7.385,43.518,0.0,0.0,0
1104,27.899,100912.0,0.178,-0.028,-0.979,-50.0,-55.0,-10.0,-2.502,5.187,30.761,0.0,0.0,0
1105,27.899,100903.0,0.238,-0.004,-0.829,-50.0,-55.0,-10.0,-11.718,-18.127,29.602,0.0,0.0,0
1106,27.899,100900.0,0.295,-0.094,-0.788,-50.0,-55.0,-10.0,-38.757,-31.188,27.221,0.0,0.0,0
1107,27.899,100900.0,0.142,0.087,-0.812,-50.0,-55.0,-10.0,-33.325,-19.104,29.235,0.0,0.0,0
1108,27.899,100905.0,0.18,-0.037,-0.988,-50.0,-55.0,-10.0,1.586,-32.409,21.179,0.0,0.0,0
1109,27.899,100906.0,0.204,0.046,-0.717,-50.0,-55.0,-10.0,-8.972,7.69,12.023,0.0,0.0,0
1110,27.899,100910.0,0.065,-0.065,-0.951,-50.0,-55.0,-10.0,-21.545,3.417,24.475,0.0,0.0,0
1111,27.899,100909.0,0.152,0.065,-0.897,-50.0,-55.0,-10.0,7.385,7.751,32.287,0.0,0.0,0
1112,27.899,100908.0,0.047,0.046,-0.917,-50.0,-55.0,-10.0,-36.926,10.742,13.61,0.0,0.0,0
1113,27.899,100915.0,0.013,0.013,-0.999,-50.0,-55.0,-10.0,7.629,-17.578,25.756,0.0,0.0,0
1114,27.899,100913.0,0.19,0.128,-0.898,-50.0,-55.0,-10.0,-13.244,5.493,21.789,0.0,0.0,0
1115,27.899,100909.0,0.147,0.099,-0.973,-50.0,-55.0,-10.0,-16.662,-23.62,12.084,0.0,0.0,0
1116,27.899,100907.0,0.151,0.086,-1.296,-50.0,-55.0,-10.0,-27.954,26.123,5.31,0.0,0.0,0
1117,27.899,100915.0,0.131,0.112,-1.046,-50.0,-55.0,-10.0,5.676,30.639,2.624,0.0,0.0,0
1118,27.899,100918.0,0.216,-0.039,-1.252,-50.0,-55.0,-10.0,-22.705,4.15,1.953,0.0,0.0,0
1119,27.899,100920.0,0.07,-0.022,-1.324,-50.0,-55.0,-10.0,-33.752,9.643,15.197,0.0,0.0,0
1120,27.899,100919.0,0.238,0.084,-1.089,-50.0,-55.0,-10.0,-17.883,-30.517,49.865,0.0,0.0,0
1121,27.899,100917.0,0.085,-0.088,-1.119,-50.0,-55.0,-10.0,3.906,49.377,-1.342,0.0,0.0,0
1122,27.899,100918.0,0.074,0.059,-1.096,-50.0,-55.0,-10.0,-28.32,-6.652,-8.056,0.0,0.0,0
1123,27.899,100918.0,0.187,0.013,-0.945,-50.0,-55.0,-10.0,20.996,-4.455,5.737,0.0,0.0,0
1124,27.899,100919.0,0.038,-0.022,-0.945,-50.0,-55.0,-10.0,-28.198,-3.417,-27.832,0.0,0.0,0
1125,27.799,100916.0,0.007,-0.01,-0.994,-50.0,-55.0,-10.0,-4.394,-0.854,0.427,0.0,0.0,0
1126,27.799,100914.0,0.006,-0.006,-0.995,-50.0,-55.0,-10.0,-4.333,-0.732,0.427,0.0,0.0,0
1127,27.799,100913.0,0.007,-0.006,-0.994,-50.0,-55.0,-10.0,-4.699,-0.915,0.244,0.0,0.0,0
1128,27.799,100919.0,0.008,-0.008,-1.0,-50.0,-55.0,-10.0,-4.699,-0.976,0.427,0.0,0.0,0
1129,27.799,100916.0,0.007,-0.01,-0.988,-50.0,-55.0,-10.0,-4.516,-0.976,0.244,0.0,0.0,0
1130,27.799,100914.0,0.007,-0.011,-0.991,-50.0,-55.0,-10.0,-4.577,-0.915,0.366,0.0,0.0,0
1131,27.7,100910.0,0.006,-0.005,-0.992,-50.0,-55.0,-10.0,-4.516,-1.037,0.244,0.0,0.0,0
1132,27.799,100915.0,0.007,-0.003,-0.996,-50.0,-55.0,-10.0,-4.699,-1.037,0.427,0.0,0.0,0
1133,27.799,100916.0,0.006,-0.008,-0.995,-50.0,-55.0,-10.0,-4.76,-0.915,0.305,0.0,0.0,0
1134,27.799,100909.0,0.006,-0.004,-0.996,-50.0,-55.0,-10.0,-4.394,-1.098,0.183,0.0,0.0,0
1135,27.799,100918.0,0.004,-0.01,-0.994,-50.0,-55.0,-10.0,-4.577,-0.854,0.244,0.0,0.0,0
1136,27.799,100922.0,0.007,-0.009,-0.992,-50.0,-55.0,-10.0,-4.638,-1.037,0.305,0.0,0.0,0
1137,27.799,100918.0,0.009,-0.007,-0.999,-50.0,-55.0,-10.0,-4.577,-1.159,0.244,0.0,0.0,0
1138,27.799,100918.0,0.007,-0.004,-1.0,-50.0,-55.0,-10.0,-4.577,-1.159,0.244,0.0,0.0,0
1139,27.799,100922.0,0.006,-0.006,-0.99,-50.0,-55.0,-10.0,-4.394,-0.915,0.244,0.0,0.0,0
1140,27.799,100924.0,0.007,-0.005,-0.996,-50.0,-55.0,-10.0,-4.516,-1.037,0.183,0.0,0.0,0
1141,27.799,100920.0,0.008,-0.007,-1.0,-50.0,-55.0,-10.0,-4.394,-0.854,0.488,0.0,0.0,0
1142,27.799,100918.0,0.008,-0.007,-0.993,-50.0,-55.0,-10.0,-4.577,-1.037,0.366,0.0,0.0,0
1143,27.799,100915.0,0.011,-0.012,-0.995,-50.0,-55.0,-10.0,-4.455,-0.854,0.122,0.0,0.0,0
1144,27.799,100921.0,0.006,-0.006,-0.997,-50.0,-55.0,-10.0,-4.577,-1.037,0.305,0.0,0.0,0
1145,27.899,100917.0,0.006,-0.006,-0.998,-50.0,-55.0,-10.0,-4.516,-0.732,0.366,0.0,0.0,0
1146,27.799,100918.0,0.007,-0.005,-0.989,-50.0,-55.0,-10.0,-4.577,-0.976,0.305,0.0,0.0,0
1147,27.899,100916.0,0.008,-0.008,-0.991,-50.0,-55.0,-10.0,-4.577,-0.915,0.366,0.0,0.0,0
1148,27.899,100923.0,0.008,-0.004,-0.999,-50.0,-55.0,-10.0,-4.577,-0.976,0.427,0.0,0.0,0
1149,27.899,100921.0,0.009,-0.005,-0.992,-50.0,-55.0,-10.0,-4.333,-0.915,0.244,0.0,0.0,0
1150,27.899,100920.0,0.005,-0.004,-1.0,-50.0,-55.0,-10.0,-4.638,-0.915,0.244,0.0,0.0,0
1151,27.899,100920.0,0.004,-0.007,-0.99,-50.0,-55.0,-10.0,-4.76,-0.915,0.244,0.0,0.0,0
1152,27.899,100922.0,0.005,-0.006,-1.0,-50.0,-55.0,-10.0,-4.699,-0.976,0.305,0.0,0.0,0
1153,27.899,100915.0,0.005,-0.005,-0.997,-50.0,-55.0,-10.0,-4.455,-0.915,0.183,0.0,0.0,0
1154,27.899,100918.0,0.007,-0.004,-0.996,-50.0,-55.0,-10.0,-4.821,-0.854,0.244,0.0,0.0,0
1155,27.899,100917.0,0.004,-0.004,-0.994,-50.0,-55.0,-10.0,-4.638,-1.098,0.427,0.0,0.0,0
1156,27.899,100922.0,0.008,-0.004,-0.994,-50.0,-55.0,-10.0,-4.455,-0.976,0.366,0.0,0.0,0
1157,27.899,100925.0,0.008,-0.007,-0.994,-50.0,-55.0,-10.0,-4.333,-1.037,0.122,0.0,0.0,0
1158,27.899,100920.0,0.006,-0.006,-0.992,-50.0,-55.0,-10.0,-4.272,-1.037,0.427,0.0,0.0,0
1159,27.899,100918.0,0.009,-0.005,-1.0,-50.0,-55.0,-10.0,-4.638,-1.037,0.244,0.0,0.0,0
1160,27.899,100917.0,0.006,-0.009,-0.993,-50.0,-55.0,-10.0,-4.333,-1.159,0.427,0.0,0.0,0
1161,27.899,100910.0,0.004,-0.001,-0.996,-50.0,-55.0,-10.0,-4.577,-1.098,0.427,0.0,0.0,0
1162,27.899,100920.0,0.005,-0.006,-0.99,-50.0,-55.0,-10.0,-4.394,-1.098,0.366,0.0,0.0,0
1163,27.899,100916.0,0.007,-0.006,-0.997,-50.0,-55.0,-10.0,-4.394,-0.976,0.183,0.0,0.0,0
1164,27.899,100918.0,0.007,-0.009,-0.993,-50.0,-55.0,-10.0,-4.699,-1.159,0.427,0.0,0.0,0
1165,27.899,100920.0,0.005,-0.003,-0.994,-50.0,-55.0,-10.0,-4.577,-1.037,0.122,0.0,0.0,0
1166,27.899,100915.0,0.009,-0.004,-0.996,-50.0,-55.0,-10.0,-4.455,-0.854,0.366,0.0,0.0,0
1167,27.899,100922.0,0.008,-0.009,-0.997,-50.0,-55.0,-10.0,-4.455,-1.037,0.427,0.0,0.0,0
1168,27.899,100913.0,0.006,-0.006,-0.998,-50.0,-55.0,-10.0,-4.455,-0.976,0.122,0.0,0.0,0
1169,27.899,100921.0,0.003,-0.008,-0.995,-50.0,-55.0,-10.0,-4.699,-0.793,0.244,0.0,0.0,0
1170,27.899,100923.0,0.009,-0.002,-1.0,-50.0,-55.0,-10.0,-4.333,-0.854,0.732,0.0,0.0,0
1171,27.899,100921.0,0.006,-0.007,-0.993,-50.0,-55.0,-10.0,-4.15,-0.854,0.183,0.0,0.0,0
1172,27.899,100926.0,0.01,-0.01,-0.998,-50.0,-55.0,-10.0,-4.577,-1.037,0.549,0.0,0.0,0
1173,27.899,100922.0,0.007,-0.007,-0.989,-50.0,-55.0,-10.0,-4.699,-0.915,0.366,0.0,0.0,0
1174,27.899,100926.0,0.006,-0.005,-0.993,-50.0,-55.0,-10.0,-4.516,-0.915,0.122,0.0,0.0,0
1175,27.899,100924.0,0.008,-0.005,-0.995,-50.0,-55.0,-10.0,-4.394,-1.098,0.183,0.0,0.0,0
1176,27.899,100917.0,0.006,-0.008,-0.999,-50.0,-55.0,-10.0,-4.638,-0.671,0.244,0.0,0.0,0
1177,27.899,100916.0,0.007,-0.008,-0.997,-50.0,-55.0,-10.0,-4.516,-1.037,0.122,0.0,0.0,0
1178,27.899,100919.0,0.01,-0.008,-0.994,-50.0,-55.0,-10.0,-4.516,-0.915,0.305,0.0,0.0,0
1179,27.899,100920.0,0.007,-0.006,-0.997,-50.0,-55.0,-10.0,-4.455,-0.915,0.183,0.0,0.0,0
1180,27.899,100920.0,0.008,-0.005,-0.998,-50.0,-55.0,-10.0,-4.638,-1.098,0.244,0.0,0.0,0
1181,27.899,100920.0,0.008,-0.008,-0.996,-50.0,-55.0,-10.0,-4.394,-0.976,0.183,0.0,0.0,0
1182,27.899,100914.0,0.005,-0.005,-0.997,-50.0,-55.0,-10.0,-4.638,-1.037,0.061,0.0,0.0,0
1183,27.899,100927.0,0.005,-0.006,-0.999,-50.0,-55.0,-10.0,-4.516,-0.793,0.427,0.0,0.0,0
1184,27.899,100915.0,0.007,-0.004,-0.992,-50.0,-55.0,-10.0,-4.516,-1.159,0.427,0.0,0.0,0
1185,27.899,100925.0,0.005,-0.007,-0.994,-50.0,-55.0,-10.0,-4.455,-1.037,0.549,0.0,0.0,0
1186,27.899,100917.0,0.005,-0.007,-0.997,-50.0,-55.0,-10.0,-4.577,-0.976,0.366,0.0,0.0,0
1187,27.899,100914.0,0.004,-0.005,-0.991,-50.0,-55.0,-10.0,-4.516,-1.22,0.244,0.0,0.0,0
1188,27.899,100921.0,0.006,-0.006,-0.994,-50.0,-55.0,-10.0,-4.455,-1.037,0.305,0.0,0.0,0
1189,27.899,100920.0,0.007,-0.007,-1.001,-50.0,-55.0,-10.0,-4.516,-0.854,0.427,0.0,0.0,0
1190,27.899,100914.0,0.012,-0.01,-0.994,-50.0,-55.0,-10.0,-4.394,-0.793,0.305,0.0,0.0,0
1191,27.899,100917.0,0.003,-0.005,-0.997,-50.0,-55.0,-10.0,-4.455,-0.976,0.488,0.0,0.0,0
1192,27.899,100914.0,0.006,-0.011,-0.995,-50.0,-55.0,-10.0,-4.638,-1.098,0.244,0.0,0.0,0
1193,27.899,100923.0,0.007,-0.006,-0.998,-50.0,-55.0,-10.0,-4.516,-1.037,0.183,0.0,0.0,0
1194,27.899,100921.0,0.003,-0.006,-0.994,-50.0,-55.0,-10.0,-4.577,-1.098,0.183,0.0,0.0,0
1195,27.899,100920.0,0.009,-0.007,-0.993,-50.0,-55.0,-10.0,-4.516,-0.915,0.183,0.0,0.0,0
1196,27.899,100923.0,0.008,-0.006,-1.0,-50.0,-55.0,-10.0,-4.76,-1.159,0.183,0.0,0.0,0
1197,27.899,100917.0,0.0,-0.008,-0.996,-50.0,-55.0,-10.0,-4.699,-0.854,0.183,0.0,0.0,0
1198,27.899,100921.0,0.005,-0.008,-0.998,-50.0,-55.0,-10.0,-4.699,-0.915,0.488,0.0,0.0,0
1199,27.899,100917.0,0.01,-0.007,-0.994,-50.0,-55.0,-10.0,-4.455,-0.732,0.305,0.0,0.0,0
1200,27.899,100922.0,0.002,-0.011,-0.998,-50.0,-55.0,-10.0,-4.455,-0.854,0.305,0.0,0.0,0
1201,0.0,0.0,0.0,0.0,0.0,0.0,0.0,0.0,0.0,0.0,0.0,0.0,0.0,0
