No,Temperature,Pressure,accelX,accelY,accelZ,magX,magY,magZ,gyroX,gryoY,gyroZ,gps_latitude,gps_longtitude,gps_time
1,26.399,100693.0,0.093,0.009,-0.985,-50.0,-55.0,-10.0,-4.394,-0.915,0.488,0.0,0.0,0
2,26.399,100689.0,0.089,0.013,-0.984,-50.0,-55.0,-10.0,-4.516,-0.915,0.305,0.0,0.0,0
3,26.399,100688.0,0.091,0.007,-0.98,-50.0,-55.0,-10.0,-4.394,-0.793,0.366,0.0,0.0,0
4,26.399,100696.0,0.083,0.01,-0.973,-50.0,-55.0,-10.0,-4.516,-0.915,0.488,0.0,0.0,0
5,26.5,100691.0,0.085,0.01,-0.98,-50.0,-55.0,-10.0,-4.394,-0.915,0.244,0.0,0.0,0
6,26.5,100694.0,0.084,0.012,-0.984,-50.0,-55.0,-10.0,-4.577,-0.854,0.122,0.0,0.0,0
7,26.5,100693.0,0.091,0.009,-0.983,-50.0,-55.0,-10.0,-4.577,-0.854,0.366,0.0,0.0,0
8,26.5,100696.0,0.094,0.011,-0.984,-50.0,-55.0,-10.0,-4.516,-1.22,0.366,0.0,0.0,0
9,26.5,100695.0,0.087,0.011,-0.985,-50.0,-55.0,-10.0,-4.394,-0.854,0.244,0.0,0.0,0
10,26.5,100696.0,0.091,0.009,-0.985,-50.0,-55.0,-10.0,-4.455,-0.671,0.427,0.0,0.0,0
11,26.5,100695.0,0.084,0.011,-0.982,-50.0,-55.0,-10.0,-4.821,-0.976,0.244,0.0,0.0,0
12,26.5,100699.0,0.088,0.012,-0.989,-50.0,-55.0,-10.0,-4.638,-0.915,0.305,0.0,0.0,0
13,26.5,100698.0,0.088,0.01,-0.979,-50.0,-55.0,-10.0,-4.577,-1.098,0.183,0.0,0.0,0
14,26.5,100691.0,0.089,0.008,-0.983,-50.0,-55.0,-10.0,-4.455,-0.793,0.244,0.0,0.0,0
15,26.5,100707.0,0.087,0.008,-0.983,-50.0,-55.0,-10.0,-4.699,-1.037,0.427,0.0,0.0,0
16,26.5,100701.0,0.087,0.011,-0.987,-50.0,-55.0,-10.0,-4.638,-0.793,0.366,0.0,0.0,0
17,26.5,100703.0,0.088,0.009,-0.983,-50.0,-55.0,-10.0,-4.455,-1.098,0.305,0.0,0.0,0
18,26.5,100707.0,0.086,0.014,-0.982,-50.0,-55.0,-10.0,-4.394,-0.915,0.305,0.0,0.0,0
19,26.5,100700.0,0.089,0.009,-0.987,-50.0,-55.0,-10.0,-4.699,-0.915,0.305,0.0,0.0,0
20,26.5,100704.0,0.088,0.011,-0.976,-50.0,-55.0,-10.0,-4.455,-1.159,0.427,0.0,0.0,0
21,26.5,100700.0,0.087,0.006,-0.973,-50.0,-55.0,-10.0,-4.333,-0.732,0.061,0.0,0.0,0
22,26.5,100704.0,0.083,0.011,-0.985,-50.0,-55.0,-10.0,-4.638,-0.793,0.183,0.0,0.0,0
23,26.5,100704.0,0.089,0.011,-0.982,-50.0,-55.0,-10.0,-4.577,-0.976,0.305,0.0,0.0,0
24,26.5,100700.0,0.089,0.012,-0.983,-50.0,-55.0,-10.0,-4.577,-1.037,0.244,0.0,0.0,0
25,26.5,100706.0,0.085,0.012,-0.982,-50.0,-55.0,-10.0,-4.455,-0.976,0.244,0.0,0.0,0
26,26.5,100705.0,0.086,0.014,-0.981,-50.0,-55.0,-10.0,-4.455,-0.915,0.122,0.0,0.0,0
27,26.5,100704.0,0.086,0.008,-0.982,-50.0,-55.0,-10.0,-4.516,-0.671,0.122,0.0,0.0,0
28,26.5,100699.0,0.086,0.009,-0.986,-50.0,-55.0,-10.0,-4.333,-0.793,0.427,0.0,0.0,0
29,26.5,100699.0,0.086,0.011,-0.984,-50.0,-55.0,-10.0,-4.76,-1.037,0.183,0.0,0.0,0
30,26.5,100698.0,0.089,0.011,-0.982,-50.0,-55.0,-10.0,-4.577,-0.732,0.183,0.0,0.0,0
31,26.5,100699.0,0.087,0.009,-0.977,-50.0,-55.0,-10.0,-4.577,-0.793,0.488,0.0,0.0,0
32,26.5,100708.0,0.09,0.01,-0.985,-50.0,-55.0,-10.0,-4.516,-0.793,0.366,0.0,0.0,0
33,26.6,100706.0,0.092,0.008,-0.987,-50.0,-55.0,-10.0,-4.516,-0.793,0.427,0.0,0.0,0
34,26.5,100703.0,0.091,0.01,-0.982,-50.0,-55.0,-10.0,-4.455,-0.671,0.305,0.0,0.0,0
35,26.5,100697.0,0.091,0.01,-0.979,-50.0,-55.0,-10.0,-4.455,-0.854,0.366,0.0,0.0,0
36,26.5,100693.0,0.088,0.014,-0.987,-50.0,-55.0,-10.0,-4.882,-0.915,0.305,0.0,0.0,0
37,26.5,100696.0,0.09,0.009,-0.977,-50.0,-55.0,-10.0,-4.577,-0.976,0.061,0.0,0.0,0
38,26.6,100697.0,0.088,0.011,-0.984,-50.0,-55.0,-10.0,-4.638,-0.915,0.488,0.0,0.0,0
39,26.5,100700.0,0.085,0.009,-0.99,-50.0,-55.0,-10.0,-4.821,-1.098,0.122,0.0,0.0,0
40,26.6,100701.0,0.093,0.014,-0.983,-50.0,-55.0,-10.0,-4.638,-0.793,0.488,0.0,0.0,0
41,26.5,100696.0,0.087,0.013,-0.984,-50.0,-55.0,-10.0,-4.882,-0.793,0.244,0.0,0.0,0
42,26.5,100694.0,0.085,0.01,-0.983,-50.0,-55.0,-10.0,-4.638,-0.854,0.305,0.0,0.0,0
43,26.6,100698.0,0.087,0.013,-0.983,-50.0,-55.0,-10.0,-4.638,-0.732,0.427,0.0,0.0,0
44,26.6,100696.0,0.084,0.011,-0.984,-50.0,-55.0,-10.0,-4.333,-1.159,0.366,0.0,0.0,0
45,26.6,100702.0,0.086,0.015,-0.98,-50.0,-55.0,-10.0,-4.516,-0.854,0.427,0.0,0.0,0
46,26.6,100699.0,0.089,0.01,-0.987,-50.0,-55.0,-10.0,-4.699,-0.976,0.244,0.0,0.0,0
47,26.6,100699.0,0.087,0.009,-0.98,-50.0,-55.0,-10.0,-4.638,-0.976,0.244,0.0,0.0,0
48,26.6,100696.0,0.089,0.012,-0.986,-50.0,-55.0,-10.0,-4.516,-0.671,0.305,0.0,0.0,0
49,26.6,100702.0,0.083,0.009,-0.985,-50.0,-55.0,-10.0,-4.76,-0.976,0.366,0.0,0.0,0
50,26.6,100705.0,0.088,0.005,-0.978,-50.0,-55.0,-10.0,-4.516,-0.854,0.305,0.0,0.0,0
51,26.6,100703.0,0.087,0.013,-0.982,-50.0,-55.0,-10.0,-4.394,-0.915,0.305,0.0,0.0,0
52,26.6,100701.0,0.089,0.008,-0.975,-50.0,-55.0,-10.0,-4.516,-0.915,0.244,0.0,0.0,0
53,26.6,100709.0,0.087,0.011,-0.966,-50.0,-55.0,-10.0,-4.577,-0.244,0.183,0.0,0.0,0
54,26.6,100713.0,0.088,0.012,-0.98,-50.0,-55.0,-10.0,-4.516,-0.976,0.244,0.0,0.0,0
55,26.6,100712.0,0.092,0.011,-0.98,-50.0,-55.0,-10.0,-4.577,-0.671,0.366,0.0,0.0,0
56,26.6,100706.0,0.088,0.015,-0.988,-50.0,-55.0,-10.0,-4.455,-0.793,0.183,0.0,0.0,0
57,26.6,100697.0,0.092,0.004,-0.978,-50.0,-55.0,-10.0,-4.394,-0.732,0.122,0.0,0.0,0
58,26.6,100701.0,0.087,0.01,-0.986,-50.0,-55.0,-10.0,-4.394,-0.915,0.122,0.0,0.0,0
59,26.6,100701.0,0.089,0.008,-0.983,-50.0,-55.0,-10.0,-4.516,-0.732,0.305,0.0,0.0,0
60,26.6,100706.0,0.085,0.012,-0.983,-50.0,-55.0,-10.0,-4.638,-0.854,0.122,0.0,0.0,0
61,26.6,100710.0,0.09,0.01,-0.981,-50.0,-55.0,-10.0,-4.272,-0.915,0.427,0.0,0.0,0
62,26.6,100700.0,0.089,0.01,-0.978,-50.0,-55.0,-10.0,-4.516,-0.915,0.427,0.0,0.0,0
63,26.6,100709.0,0.087,0.015,-0.986,-50.0,-55.0,-10.0,-4.577,-0.854,0.366,0.0,0.0,0
64,26.6,100701.0,0.091,0.01,-0.984,-50.0,-55.0,-10.0,-4.516,-1.098,0.366,0.0,0.0,0
65,26.6,100707.0,0.088,0.012,-0.983,-50.0,-55.0,-10.0,-4.577,-0.854,0.488,0.0,0.0,0
66,26.6,100707.0,0.087,0.012,-0.981,-50.0,-55.0,-10.0,-4.577,-0.854,0.427,0.0,0.0,0
67,26.6,100700.0,0.088,0.009,-0.984,-50.0,-55.0,-10.0,-4.638,-0.793,0.366,0.0,0.0,0
68,26.6,100702.0,0.086,0.013,-0.984,-50.0,-55.0,-10.0,-4.333,-0.854,0.488,0.0,0.0,0
69,26.6,100702.0,0.086,0.014,-0.982,-50.0,-55.0,-10.0,-4.638,-0.854,0.244,0.0,0.0,0
70,26.6,100701.0,0.086,0.01,-0.982,-50.0,-55.0,-10.0,-4.333,-0.915,0.305,0.0,0.0,0
71,26.6,100699.0,0.086,0.012,-0.994,-50.0,-55.0,-10.0,-4.76,-0.854,0.549,0.0,0.0,0
72,26.6,100698.0,0.085,0.008,-0.983,-50.0,-55.0,-10.0,-4.394,-0.976,0.244,0.0,0.0,0
73,26.6,100704.0,0.088,0.008,-0.982,-50.0,-55.0,-10.0,-4.516,-0.854,0.183,0.0,0.0,0
74,26.6,100698.0,0.086,0.012,-0.983,-50.0,-55.0,-10.0,-4.638,-0.915,0.061,0.0,0.0,0
75,26.6,100702.0,0.092,0.014,-0.986,-50.0,-55.0,-10.0,-4.455,-0.732,0.488,0.0,0.0,0
76,26.6,100697.0,0.088,0.012,-0.984,-50.0,-55.0,-10.0,-4.516,-0.793,0.305,0.0,0.0,0
77,26.6,100699.0,0.087,0.007,-0.982,-50.0,-55.0,-10.0,-4.577,-0.915,0.488,0.0,0.0,0
78,26.6,100694.0,0.089,0.011,-0.986,-50.0,-55.0,-10.0,-4.577,-0.976,0.305,0.0,0.0,0
79,26.6,100696.0,0.087,0.008,-0.982,-50.0,-55.0,-10.0,-4.272,-0.671,-0.122,0.0,0.0,0
80,26.6,100700.0,0.087,0.011,-0.986,-50.0,-55.0,-10.0,-4.821,-0.976,0.305,0.0,0.0,0
81,26.6,100709.0,0.092,0.009,-0.979,-50.0,-55.0,-10.0,-4.394,-1.159,0.183,0.0,0.0,0
82,26.6,100713.0,0.089,0.012,-0.983,-50.0,-55.0,-10.0,-4.699,-0.793,0.488,0.0,0.0,0
83,26.6,100707.0,0.089,0.012,-0.987,-50.0,-55.0,-10.0,-4.577,-1.037,0.244,0.0,0.0,0
84,26.6,100696.0,0.09,0.012,-0.992,-50.0,-55.0,-10.0,-4.699,-0.915,0.305,0.0,0.0,0
85,26.6,100699.0,0.087,0.01,-0.987,-50.0,-55.0,-10.0,-4.76,-1.037,0.366,0.0,0.0,0
86,26.6,100700.0,0.097,0.005,-0.984,-50.0,-55.0,-10.0,-4.638,-0.976,0.488,0.0,0.0,0
87,26.6,100701.0,0.084,0.012,-0.983,-50.0,-55.0,-10.0,-4.577,-0.854,0.244,0.0,0.0,0
88,26.6,100706.0,0.086,0.01,-0.983,-50.0,-55.0,-10.0,-4.333,-1.037,0.366,0.0,0.0,0
89,26.6,100698.0,0.082,0.008,-0.983,-50.0,-55.0,-10.0,-4.577,-1.098,0.366,0.0,0.0,0
90,26.6,100704.0,0.085,0.009,-0.984,-50.0,-55.0,-10.0,-4.333,-0.976,0.61,0.0,0.0,0
91,26.6,100698.0,0.089,0.009,-0.985,-50.0,-55.0,-10.0,-4.577,-0.671,0.366,0.0,0.0,0
92,26.6,100699.0,0.085,0.011,-0.984,-50.0,-55.0,-10.0,-4.577,-0.671,0.305,0.0,0.0,0
93,26.6,100698.0,0.087,0.009,-0.985,-50.0,-55.0,-10.0,-4.577,-0.793,0.366,0.0,0.0,0
94,26.6,100707.0,0.088,0.012,-0.974,-50.0,-55.0,-10.0,-4.455,-0.976,0.488,0.0,0.0,0
95,26.6,100703.0,0.087,0.011,-0.99,-50.0,-55.0,-10.0,-4.577,-0.976,0.244,0.0,0.0,0
96,26.6,100701.0,0.088,0.008,-0.978,-50.0,-55.0,-10.0,-4.455,-1.098,0.305,0.0,0.0,0
97,26.6,100701.0,0.087,0.01,-0.982,-50.0,-55.0,-10.0,-4.455,-0.915,0.549,0.0,0.0,0
98,26.6,100700.0,0.087,0.008,-0.982,-50.0,-55.0,-10.0,-4.394,-0.854,0.488,0.0,0.0,0
99,26.6,100706.0,0.086,0.011,-0.979,-50.0,-55.0,-10.0,-4.516,-0.976,0.244,0.0,0.0,0
100,26.6,100706.0,0.09,0.01,-0.987,-50.0,-55.0,-10.0,-4.577,-1.037,0.488,0.0,0.0,0
101,26.6,100701.0,0.082,0.009,-0.978,-50.0,-55.0,-10.0,-4.577,-0.915,0.366,0.0,0.0,0
102,26.6,100696.0,0.091,0.012,-0.983,-50.0,-55.0,-10.0,-4.455,-0.732,0.305,0.0,0.0,0
103,26.6,100699.0,0.092,0.008,-0.987,-50.0,-55.0,-10.0,-4.699,-0.732,0.244,0.0,0.0,0
104,26.6,100696.0,0.089,0.013,-0.985,-50.0,-55.0,-10.0,-4.638,-0.854,0.244,0.0,0.0,0
105,26.6,100703.0,0.083,0.005,-0.986,-50.0,-55.0,-10.0,-4.333,-0.793,0.366,0.0,0.0,0
106,26.6,100703.0,0.089,0.01,-0.986,-50.0,-55.0,-10.0,-4.638,-0.793,0.244,0.0,0.0,0
107,26.6,100706.0,0.084,0.01,-0.979,-50.0,-55.0,-10.0,-4.699,-1.098,0.183,0.0,0.0,0
108,26.6,100698.0,0.083,0.014,-0.986,-50.0,-55.0,-10.0,-4.455,-0.793,0.183,0.0,0.0,0
109,26.6,100701.0,0.083,0.012,-0.979,-50.0,-55.0,-10.0,-4.577,-0.793,0.183,0.0,0.0,0
110,26.6,100706.0,0.085,0.012,-0.98,-50.0,-55.0,-10.0,-4.394,-0.793,0.122,0.0,0.0,0
111,26.6,100704.0,0.087,0.012,-0.983,-50.0,-55.0,-10.0,-4.577,-0.732,0.183,0.0,0.0,0
112,26.6,100697.0,0.092,0.008,-0.983,-50.0,-55.0,-10.0,-4.455,-0.793,0.244,0.0,0.0,0
113,26.6,100699.0,0.091,0.013,-0.984,-50.0,-55.0,-10.0,-4.333,-0.793,0.305,0.0,0.0,0
114,26.6,100706.0,0.086,0.011,-0.978,-50.0,-55.0,-10.0,-4.577,-0.976,0.183,0.0,0.0,0
115,26.6,100706.0,0.088,0.009,-0.978,-50.0,-55.0,-10.0,-4.638,-0.671,0.366,0.0,0.0,0
116,26.6,100706.0,0.088,0.012,-0.986,-50.0,-55.0,-10.0,-4.455,-1.159,0.488,0.0,0.0,0
117,26.6,100701.0,0.09,0.008,-0.983,-50.0,-55.0,-10.0,-4.455,-0.915,0.183,0.0,0.0,0
118,26.6,100700.0,0.089,0.008,-0.98,-50.0,-55.0,-10.0,-4.516,-0.915,0.244,0.0,0.0,0
119,26.6,100699.0,0.083,0.009,-0.977,-50.0,-55.0,-10.0,-4.577,-0.915,0.305,0.0,0.0,0
120,26.6,100697.0,0.088,0.009,-0.975,-50.0,-55.0,-10.0,-4.577,-0.793,0.061,0.0,0.0,0
121,26.6,100702.0,0.083,0.01,-0.989,-50.0,-55.0,-10.0,-4.455,-0.793,0.305,0.0,0.0,0
122,26.6,100704.0,0.087,0.01,-0.983,-50.0,-55.0,-10.0,-4.516,-0.793,0.488,0.0,0.0,0
123,26.6,100700.0,0.086,0.014,-0.978,-50.0,-55.0,-10.0,-4.76,-1.037,0.366,0.0,0.0,0
124,26.6,100693.0,0.089,0.007,-0.982,-50.0,-55.0,-10.0,-4.577,-1.098,0.244,0.0,0.0,0
125,26.6,100696.0,0.086,0.012,-0.981,-50.0,-55.0,-10.0,-4.516,-0.854,0.488,0.0,0.0,0
126,26.6,100701.0,0.083,0.009,-0.986,-50.0,-55.0,-10.0,-4.455,-1.098,0.427,0.0,0.0,0
127,26.6,100712.0,0.089,0.011,-0.985,-50.0,-55.0,-10.0,-4.699,-0.915,0.122,0.0,0.0,0
128,26.6,100707.0,0.085,0.013,-0.983,-50.0,-55.0,-10.0,-4.638,-0.854,0.549,0.0,0.0,0
129,26.6,100706.0,0.087,0.011,-0.986,-50.0,-55.0,-10.0,-4.455,-0.793,0.305,0.0,0.0,0
130,26.6,100710.0,0.088,0.011,-0.979,-50.0,-55.0,-10.0,-4.638,-0.793,0.305,0.0,0.0,0
131,26.6,100698.0,0.085,0.013,-0.987,-50.0,-55.0,-10.0,-4.699,-0.976,0.427,0.0,0.0,0
132,26.6,100703.0,0.089,0.01,-0.979,-50.0,-55.0,-10.0,-4.638,-0.854,0.305,0.0,0.0,0
133,26.6,100700.0,0.087,0.011,-0.984,-50.0,-55.0,-10.0,-4.638,-0.976,0.183,0.0,0.0,0
134,26.6,100702.0,0.092,0.008,-0.984,-50.0,-55.0,-10.0,-4.516,-0.915,0.488,0.0,0.0,0
135,26.6,100700.0,0.088,0.01,-0.982,-50.0,-55.0,-10.0,-4.577,-0.854,0.061,0.0,0.0,0
136,26.6,100704.0,0.131,0.011,-1.01,-50.0,-55.0,-10.0,-4.516,-1.953,0.427,0.0,0.0,0
137,26.6,100698.0,0.077,0.011,-0.976,-50.0,-55.0,-10.0,-4.577,-0.549,0.549,0.0,0.0,0
138,26.6,100698.0,0.101,0.011,-0.991,-50.0,-55.0,-10.0,-4.638,-0.976,0.122,0.0,0.0,0
139,26.6,100696.0,0.059,0.004,-0.97,-50.0,-55.0,-10.0,-4.577,-0.366,0.427,0.0,0.0,0
140,26.6,100704.0,0.086,0.011,-0.982,-50.0,-55.0,-10.0,-4.821,-0.732,0.549,0.0,0.0,0
141,26.6,100698.0,0.083,0.013,-0.986,-50.0,-55.0,-10.0,-4.638,-0.976,0.549,0.0,0.0,0
142,26.6,100705.0,0.085,0.01,-0.968,-50.0,-55.0,-10.0,-4.699,-0.671,0.427,0.0,0.0,0
143,26.6,100699.0,0.101,0.013,-0.991,-50.0,-55.0,-10.0,-4.516,-0.427,0.549,0.0,0.0,0
144,26.6,100702.0,0.093,0.01,-0.991,-50.0,-55.0,-10.0,-4.577,-0.305,0.305,0.0,0.0,0
145,26.6,100701.0,0.067,0.015,-0.978,-50.0,-55.0,-10.0,-4.699,-0.732,0.427,0.0,0.0,0
146,26.6,100704.0,0.094,0.01,-0.986,-50.0,-55.0,-10.0,-4.516,-0.976,0.244,0.0,0.0,0
147,26.6,100698.0,0.085,0.008,-0.99,-50.0,-55.0,-10.0,-4.272,-0.732,0.427,0.0,0.0,0
148,26.6,100700.0,0.083,0.01,-0.974,-50.0,-55.0,-10.0,-4.516,-0.915,0.305,0.0,0.0,0
149,26.6,100700.0,0.083,0.015,-0.999,-50.0,-55.0,-10.0,-4.516,-0.976,0.122,0.0,0.0,0
150,26.6,100707.0,0.086,0.01,-0.985,-50.0,-55.0,-10.0,-4.577,-0.976,0.427,0.0,0.0,0
151,26.6,100706.0,0.091,0.012,-0.979,-50.0,-55.0,-10.0,-4.638,-0.854,0.305,0.0,0.0,0
152,26.6,100704.0,0.088,0.011,-0.98,-50.0,-55.0,-10.0,-4.577,-0.976,0.244,0.0,0.0,0
153,26.6,100704.0,0.087,0.015,-0.986,-50.0,-55.0,-10.0,-4.272,-1.037,0.549,0.0,0.0,0
154,26.6,100706.0,0.093,0.012,-0.981,-50.0,-55.0,-10.0,-4.638,-0.915,0.305,0.0,0.0,0
155,26.6,100710.0,0.09,0.013,-0.987,-50.0,-55.0,-10.0,-4.333,-0.793,0.244,0.0,0.0,0
156,26.6,100708.0,0.088,0.01,-0.983,-50.0,-55.0,-10.0,-4.577,-0.793,0.366,0.0,0.0,0
157,26.6,100713.0,0.087,0.011,-0.979,-50.0,-55.0,-10.0,-4.638,-0.915,0.183,0.0,0.0,0
158,26.6,100709.0,0.092,0.011,-0.983,-50.0,-55.0,-10.0,-4.577,-0.976,0.244,0.0,0.0,0
159,26.6,100698.0,0.089,0.01,-0.981,-50.0,-55.0,-10.0,-4.516,-0.854,0.122,0.0,0.0,0
160,26.6,100703.0,0.089,0.008,-0.984,-50.0,-55.0,-10.0,-4.272,-0.854,0.183,0.0,0.0,0
161,26.6,100705.0,0.089,0.012,-0.98,-50.0,-55.0,-10.0,-4.76,-0.732,0.305,0.0,0.0,0
162,26.6,100704.0,0.083,0.009,-0.984,-50.0,-55.0,-10.0,-4.394,-0.793,0.305,0.0,0.0,0
163,26.6,100703.0,0.088,0.009,-0.985,-50.0,-55.0,-10.0,-4.638,-0.915,0.183,0.0,0.0,0
164,26.6,100697.0,0.083,0.013,-0.983,-50.0,-55.0,-10.0,-4.394,-1.098,0.305,0.0,0.0,0
165,26.6,100703.0,0.088,0.008,-0.987,-50.0,-55.0,-10.0,-4.394,-0.976,0.183,0.0,0.0,0
166,26.6,100703.0,0.09,0.01,-0.983,-50.0,-55.0,-10.0,-4.638,-0.732,0.183,0.0,0.0,0
167,26.6,100701.0,0.086,0.01,-0.983,-50.0,-55.0,-10.0,-4.577,-0.732,0.366,0.0,0.0,0
168,26.6,100705.0,0.087,0.015,-0.984,-50.0,-55.0,-10.0,-4.272,-0.671,0.183,0.0,0.0,0
169,26.6,100710.0,0.086,0.011,-0.979,-50.0,-55.0,-10.0,-4.699,-0.915,0.305,0.0,0.0,0
170,26.6,100705.0,0.079,0.009,-0.973,-50.0,-55.0,-10.0,-4.638,-0.488,0.244,0.0,0.0,0
171,26.6,100708.0,0.092,0.01,-0.991,-50.0,-55.0,-10.0,-4.455,-0.854,0.122,0.0,0.0,0
172,26.6,100701.0,0.088,0.01,-0.983,-50.0,-55.0,-10.0,-4.455,-0.854,0.183,0.0,0.0,0
173,26.6,100706.0,0.086,0.01,-0.985,-50.0,-55.0,-10.0,-4.516,-0.854,0.305,0.0,0.0,0
174,26.6,100708.0,0.092,0.009,-0.991,-50.0,-55.0,-10.0,-4.638,-0.915,0.366,0.0,0.0,0
175,26.6,100701.0,0.09,0.012,-0.987,-50.0,-55.0,-10.0,-4.333,-0.915,0.183,0.0,0.0,0
176,26.6,100703.0,0.089,0.012,-0.984,-50.0,-55.0,-10.0,-4.577,-0.915,0.488,0.0,0.0,0
177,26.6,100698.0,0.087,0.005,-0.986,-50.0,-55.0,-10.0,-4.455,-0.915,0.366,0.0,0.0,0
178,26.6,100706.0,0.09,0.013,-0.986,-50.0,-55.0,-10.0,-4.516,-1.098,0.488,0.0,0.0,0
179,26.6,100703.0,0.082,0.008,-0.979,-50.0,-55.0,-10.0,-4.638,-0.915,0.244,0.0,0.0,0
180,26.6,100701.0,0.085,0.013,-0.979,-50.0,-55.0,-10.0,-4.333,-0.671,0.244,0.0,0.0,0
181,26.6,100697.0,0.089,0.014,-0.981,-50.0,-55.0,-10.0,-4.699,-0.915,0.305,0.0,0.0,0
182,26.6,100700.0,0.086,0.01,-0.985,-50.0,-55.0,-10.0,-4.516,-0.732,0.122,0.0,0.0,0
183,26.6,100697.0,0.069,0.018,-0.975,-50.0,-55.0,-10.0,-4.455,-0.427,0.366,0.0,0.0,0
184,26.6,100699.0,0.089,0.011,-0.981,-50.0,-55.0,-10.0,-4.638,-0.915,0.183,0.0,0.0,0
185,26.6,100699.0,0.087,0.009,-0.984,-50.0,-55.0,-10.0,-4.394,-0.854,0.488,0.0,0.0,0
186,26.6,100690.0,0.088,0.011,-0.984,-50.0,-55.0,-10.0,-4.638,-0.793,0.488,0.0,0.0,0
187,26.6,100698.0,0.09,0.012,-0.986,-50.0,-55.0,-10.0,-4.577,-1.037,0.305,0.0,0.0,0
188,26.6,100704.0,0.086,0.014,-0.99,-50.0,-55.0,-10.0,-4.577,-0.976,0.305,0.0,0.0,0
189,26.6,100702.0,0.092,0.014,-0.982,-50.0,-55.0,-10.0,-4.638,-0.976,0.305,0.0,0.0,0
190,26.6,100702.0,0.088,0.01,-0.984,-50.0,-55.0,-10.0,-4.638,-1.037,0.427,0.0,0.0,0
191,26.6,100703.0,0.086,0.011,-0.982,-50.0,-55.0,-10.0,-4.638,-0.854,0.183,0.0,0.0,0
192,26.6,100705.0,0.091,0.01,-0.982,-50.0,-55.0,-10.0,-4.699,-0.976,0.305,0.0,0.0,0
193,26.6,100706.0,0.091,0.013,-0.984,-50.0,-55.0,-10.0,-4.76,-0.976,0.305,0.0,0.0,0
194,26.6,100703.0,0.096,0.013,-0.984,-50.0,-55.0,-10.0,-4.455,-0.915,0.244,0.0,0.0,0
195,26.6,100712.0,0.468,0.126,-1.322,-50.0,-55.0,-10.0,-0.305,-127.38,-11.962,0.0,0.0,0
196,26.6,100700.0,0.086,0.015,-0.983,-50.0,-55.0,-10.0,-4.455,-0.549,0.244,0.0,0.0,0
197,26.6,100705.0,0.091,0.014,-0.984,-50.0,-55.0,-10.0,-4.272,-0.671,0.183,0.0,0.0,0
198,26.6,100700.0,0.085,0.009,-0.984,-50.0,-55.0,-10.0,-4.577,-0.854,0.0,0.0,0.0,0
199,26.6,100703.0,0.088,0.014,-0.982,-50.0,-55.0,-10.0,-4.516,-0.854,0.366,0.0,0.0,0
200,26.6,100702.0,0.089,0.018,-0.984,-50.0,-55.0,-10.0,-4.516,-0.61,0.244,0.0,0.0,0
201,26.399,100684.0,0.05,-0.017,-0.981,-50.0,-55.0,-10.0,-2.563,-4.211,-4.882,0.0,0.0,0
202,26.399,100692.0,0.051,-0.019,-0.987,-50.0,-55.0,-10.0,-4.699,-1.586,-3.54,0.0,0.0,0
203,26.5,100692.0,0.054,-0.015,-0.987,-50.0,-55.0,-10.0,-2.441,-3.173,-3.051,0.0,0.0,0
204,26.5,100699.0,0.062,-0.022,-0.989,-50.0,-55.0,-10.0,-3.784,-1.098,-0.915,0.0,0.0,0
205,26.5,100703.0,0.056,-0.017,-0.982,-50.0,-55.0,-10.0,-0.854,-1.953,-1.22,0.0,0.0,0
206,26.5,100686.0,0.061,-0.01,-0.987,-50.0,-55.0,-10.0,-7.629,-0.305,-1.098,0.0,0.0,0
207,26.5,100688.0,0.068,-0.02,-0.97,-50.0,-55.0,-10.0,-2.929,1.464,1.892,0.0,0.0,0
208,26.5,100706.0,0.066,-0.016,-0.994,-50.0,-55.0,-10.0,-4.211,-1.953,2.929,0.0,0.0,0
209,26.5,100702.0,0.116,-0.057,-0.965,-50.0,-55.0,-10.0,-8.605,-5.676,-1.708,0.0,0.0,0
210,26.5,100695.0,0.083,-0.04,-0.996,-50.0,-55.0,-10.0,2.197,13.977,13.732,0.0,0.0,0
211,26.5,100699.0,0.073,-0.052,-0.994,-50.0,-55.0,-10.0,-6.53,-0.366,9.521,0.0,0.0,0
212,26.5,100695.0,0.098,-0.062,-0.972,-50.0,-55.0,-10.0,-5.798,3.54,9.338,0.0,0.0,0
213,26.5,100700.0,0.095,-0.04,-0.948,-50.0,-55.0,-10.0,-9.704,-4.699,17.883,0.0,0.0,0
214,26.6,100701.0,0.047,-0.046,-0.972,-50.0,-55.0,-10.0,-7.812,5.065,24.902,0.0,0.0,0
215,26.6,100696.0,0.034,-0.03,-1.021,-50.0,-55.0,-10.0,-3.601,0.183,32.714,0.0,0.0,0
216,26.6,100694.0,0.109,0.012,-1.011,-50.0,-55.0,-10.0,-3.479,-10.314,33.325,0.0,0.0,0
217,26.6,100690.0,0.123,0.006,-0.983,-50.0,-55.0,-10.0,-9.521,0.915,29.113,0.0,0.0,0
218,26.6,100695.0,0.066,0.039,-0.992,-50.0,-55.0,-10.0,0.0,5.981,24.291,0.0,0.0,0
219,26.6,100693.0,0.074,-0.011,-0.958,-50.0,-55.0,-10.0,-10.986,-7.141,8.85,0.0,0.0,0
220,26.399,100689.0,0.089,0.007,-0.929,-50.0,-55.0,-10.0,-23.681,-20.446,43.518,0.0,0.0,0
221,26.5,100700.0,0.083,0.006,-1.1,-50.0,-55.0,-10.0,7.507,24.658,58.959,0.0,0.0,0
222,26.5,100698.0,0.043,0.077,-1.046,-50.0,-55.0,-10.0,2.136,13.183,46.813,0.0,0.0,0
223,26.5,100696.0,0.043,-0.025,-0.959,-50.0,-55.0,-10.0,-26.306,7.934,34.301,0.0,0.0,0
224,26.5,100707.0,-0.003,-0.014,-1.022,-50.0,-55.0,-10.0,14.343,19.47,22.399,0.0,0.0,0
225,26.5,100698.0,0.017,-0.067,-0.875,-50.0,-55.0,-10.0,-15.38,1.281,23.62,0.0,0.0,0
226,26.5,100691.0,-0.021,-0.032,-1.01,-50.0,-55.0,-10.0,2.807,2.685,25.573,0.0,0.0,0
227,26.6,100694.0,-0.02,-0.05,-0.99,-50.0,-55.0,-10.0,-4.15,-11.169,21.911,0.0,0.0,0
228,26.6,100700.0,-0.022,-0.015,-0.957,-50.0,-55.0,-10.0,3.723,0.366,24.78,0.0,0.0,0
229,26.6,100691.0,-0.004,0.003,-0.979,-50.0,-55.0,-10.0,-3.723,-17.517,27.526,0.0,0.0,0
230,26.6,100695.0,0.023,0.055,-1.012,-50.0,-55.0,-10.0,-3.845,-14.465,15.441,0.0,0.0,0
231,26.6,100697.0,0.006,0.052,-1.037,-50.0,-55.0,-10.0,-1.281,9.094,23.681,0.0,0.0,0
232,26.6,100699.0,0.035,0.036,-0.934,-50.0,-55.0,-10.0,-27.099,-13.183,5.92,0.0,0.0,0
233,26.6,100697.0,0.064,0.002,-1.072,-50.0,-55.0,-10.0,5.187,22.399,13.793,0.0,0.0,0
234,26.6,100702.0,0.008,0.054,-0.971,-50.0,-55.0,-10.0,1.647,2.075,4.089,0.0,0.0,0
235,26.6,100699.0,0.065,0.013,-0.94,-50.0,-55.0,-10.0,-10.314,-4.394,5.004,0.0,0.0,0
236,26.6,100701.0,0.057,0.079,-0.997,-50.0,-55.0,-10.0,1.464,12.939,19.226,0.0,0.0,0
237,26.6,100697.0,0.05,0.09,-1.003,-50.0,-55.0,-10.0,-13.732,-10.375,13.244,0.0,0.0,0
238,26.6,100695.0,0.049,0.043,-1.039,-50.0,-55.0,-10.0,-16.052,-0.793,23.376,0.0,0.0,0
239,26.6,100690.0,0.049,0.0,-0.94,-50.0,-55.0,-10.0,-14.648,-7.263,25.39,0.0,0.0,0
240,26.6,100691.0,-0.002,0.011,-1.046,-50.0,-55.0,-10.0,2.685,5.615,33.508,0.0,0.0,0
241,26.6,100700.0,0.023,-0.027,-0.948,-50.0,-55.0,-10.0,-16.784,-14.099,22.766,0.0,0.0,0
242,26.6,100699.0,0.003,0.001,-0.985,-50.0,-55.0,-10.0,5.187,6.591,21.301,0.0,0.0,0
243,26.6,100696.0,0.028,-0.044,-1.015,-50.0,-55.0,-10.0,1.953,9.704,15.991,0.0,0.0,0
244,26.6,100699.0,0.028,-0.047,-0.947,-50.0,-55.0,-10.0,-8.117,5.737,6.164,0.0,0.0,0
245,26.6,100700.0,-0.004,-0.049,-0.977,-50.0,-55.0,-10.0,-1.037,4.882,7.812,0.0,0.0,0
246,26.6,100701.0,0.001,-0.012,-0.938,-50.0,-55.0,-10.0,-7.629,-11.718,3.356,0.0,0.0,0
247,26.6,100702.0,0.018,0.0,-0.997,-50.0,-55.0,-10.0,1.403,-3.601,14.343,0.0,0.0,0
248,26.6,100697.0,0.092,-0.001,-0.961,-50.0,-55.0,-10.0,-10.375,-9.399,8.605,0.0,0.0,0
249,26.6,100710.0,0.098,-0.003,-1.001,-50.0,-55.0,-10.0,-7.934,2.075,6.469,0.0,0.0,0
250,26.6,100702.0,0.119,0.005,-0.981,-50.0,-55.0,-10.0,-16.174,-23.254,-11.84,0.0,0.0,0
251,26.6,100697.0,0.108,-0.04,-1.049,-50.0,-55.0,-10.0,0.427,-4.089,-14.831,0.0,0.0,0
252,26.6,100692.0,-0.003,0.07,-1.04,-50.0,-55.0,-10.0,3.234,-0.305,-21.362,0.0,0.0,0
253,26.6,100694.0,-0.038,0.032,-0.969,-50.0,-55.0,-10.0,-23.864,-5.187,-14.221,0.0,0.0,0
254,26.7,100694.0,-0.021,0.01,-1.008,-50.0,-55.0,-10.0,8.972,-22.277,-23.742,0.0,0.0,0
255,26.6,100698.0,0.118,0.062,-0.947,-50.0,-55.0,-10.0,16.54,-5.371,-27.709,0.0,0.0,0
256,26.6,100689.0,0.097,0.049,-0.961,-50.0,-55.0,-10.0,1.586,13.366,-19.775,0.0,0.0,0
257,26.6,100697.0,0.088,0.04,-0.959,-50.0,-55.0,-10.0,2.929,11.779,-13.0,0.0,0.0,0
258,26.6,100699.0,0.1,0.079,-0.925,-50.0,-55.0,-10.0,-1.403,-2.807,-18.188,0.0,0.0,0
259,26.7,100699.0,0.153,0.06,-0.979,-50.0,-55.0,-10.0,-2.319,8.178,-16.113,0.0,0.0,0
260,26.7,100703.0,0.129,0.056,-0.966,-50.0,-55.0,-10.0,-24.658,11.291,-8.972,0.0,0.0,0
261,26.6,100692.0,0.078,0.075,-1.022,-50.0,-55.0,-10.0,-0.122,2.319,8.3,0.0,0.0,0
262,26.7,100698.0,0.052,0.036,-0.966,-50.0,-55.0,-10.0,1.464,2.624,6.774,0.0,0.0,0
263,26.6,100693.0,0.09,0.011,-1.032,-50.0,-55.0,-10.0,11.108,-3.54,-0.366,0.0,0.0,0
264,26.6,100699.0,-0.003,0.102,-1.132,-50.0,-55.0,-10.0,12.023,23.925,-18.493,0.0,0.0,0
265,26.7,100700.0,0.017,-0.04,-0.917,-50.0,-55.0,-10.0,-18.981,-0.244,-19.897,0.0,0.0,0
266,26.6,100700.0,-0.035,-0.002,-0.96,-50.0,-55.0,-10.0,5.065,-8.666,-8.972,0.0,0.0,0
267,26.7,100697.0,0.008,0.011,-0.942,-50.0,-55.0,-10.0,0.061,2.868,-11.108,0.0,0.0,0
268,26.6,100701.0,-0.003,-0.013,-0.933,-50.0,-55.0,-10.0,-29.113,-2.014,-18.798,0.0,0.0,0
269,26.6,100698.0,-0.021,-0.071,-0.945,-50.0,-55.0,-10.0,-5.676,-3.723,-7.873,0.0,0.0,0
270,26.7,100700.0,-0.005,-0.034,-1.023,-50.0,-55.0,-10.0,0.488,-10.07,-8.605,0.0,0.0,0
271,26.7,100704.0,0.054,-0.035,-1.019,-50.0,-55.0,-10.0,-7.568,-12.573,-3.356,0.0,0.0,0
272,26.7,100697.0,0.025,-0.001,-1.071,-50.0,-55.0,-10.0,-6.408,-15.625,2.99,0.0,0.0,0
273,26.7,100702.0,0.022,0.032,-1.134,-50.0,-55.0,-10.0,15.136,-4.455,-2.38,0.0,0.0,0
274,26.7,100698.0,0.073,0.028,-0.947,-50.0,-55.0,-10.0,-17.639,-4.821,-5.798,0.0,0.0,0
275,26.7,100690.0,-0.026,0.047,-1.041,-50.0,-55.0,-10.0,8.544,9.155,-5.126,0.0,0.0,0
276,26.7,100691.0,0.062,-0.01,-0.883,-50.0,-55.0,-10.0,-7.263,-14.465,-12.634,0.0,0.0,0
277,26.7,100690.0,0.041,0.025,-0.942,-50.0,-55.0,-10.0,-5.004,15.747,-2.197,0.0,0.0,0
278,26.7,100694.0,0.056,0.023,-0.943,-50.0,-55.0,-10.0,-9.216,4.76,8.728,0.0,0.0,0
279,26.7,100694.0,0.062,-0.029,-0.917,-50.0,-55.0,-10.0,-21.24,2.929,16.418,0.0,0.0,0
280,26.7,100689.0,0.08,-0.042,-0.963,-50.0,-55.0,-10.0,-21.911,-4.028,20.996,0.0,0.0,0
281,26.7,100693.0,0.02,-0.019,-1.094,-50.0,-55.0,-10.0,-3.906,-6.408,33.325,0.0,0.0,0
282,26.7,100695.0,0.088,0.051,-1.102,-50.0,-55.0,-10.0,23.376,0.549,38.696,0.0,0.0,0
283,26.7,100699.0,-0.007,0.004,-0.944,-50.0,-55.0,-10.0,-5.004,-17.517,8.666,0.0,0.0,0
284,26.7,100693.0,-0.041,0.057,-1.116,-50.0,-55.0,-10.0,25.39,20.385,13.183,0.0,0.0,0
285,26.7,100695.0,-0.052,0.029,-1.018,-50.0,-55.0,-10.0,-11.413,-8.666,8.544,0.0,0.0,0
286,26.7,100694.0,0.013,-0.016,-0.864,-50.0,-55.0,-10.0,-20.446,-16.418,0.488,0.0,0.0,0
287,26.7,100698.0,0.018,0.008,-0.93,-50.0,-55.0,-10.0,-0.305,7.507,4.455,0.0,0.0,0
288,26.7,100701.0,-0.005,0.013,-0.968,-50.0,-55.0,-10.0,-13.122,8.972,10.314,0.0,0.0,0
289,26.7,100690.0,0.046,-0.04,-0.948,-50.0,-55.0,-10.0,-16.418,-12.145,-3.295,0.0,0.0,0
290,26.7,100689.0,0.056,-0.02,-0.984,-50.0,-55.0,-10.0,-13.366,-14.648,-5.798,0.0,0.0,0
291,26.7,100690.0,0.033,0.073,-1.109,-50.0,-55.0,-10.0,24.047,14.16,-8.178,0.0,0.0,0
292,26.7,100692.0,0.051,0.007,-0.936,-50.0,-55.0,-10.0,-19.104,-23.132,-20.69,0.0,0.0,0
293,26.7,100694.0,0.046,0.025,-1.053,-50.0,-55.0,-10.0,5.371,22.338,-8.972,0.0,0.0,0
294,26.7,100694.0,0.015,0.027,-0.959,-50.0,-55.0,-10.0,-11.779,-9.521,-15.075,0.0,0.0,0
295,26.7,100697.0,0.09,-0.016,-0.906,-50.0,-55.0,-10.0,-5.92,8.911,-6.408,0.0,0.0,0
296,26.7,100693.0,0.069,-0.013,-0.941,-50.0,-55.0,-10.0,-12.695,-7.019,2.136,0.0,0.0,0
297,26.7,100693.0,0.058,0.024,-1.059,-50.0,-55.0,-10.0,-1.647,11.23,9.765,0.0,0.0,0
298,26.7,100697.0,0.037,0.002,-1.002,-50.0,-55.0,-10.0,-25.329,-25.207,7.507,0.0,0.0,0
299,26.7,100696.0,0.034,0.023,-1.069,-50.0,-55.0,-10.0,14.16,8.178,17.7,0.0,0.0,0
300,26.7,100694.0,0.015,-0.038,-0.901,-50.0,-55.0,-10.0,-20.935,-13.427,-2.197,0.0,0.0,0
301,26.7,100696.0,-0.028,0.032,-1.028,-50.0,-55.0,-10.0,24.78,8.972,10.07,0.0,0.0,0
302,26.7,100698.0,0.008,-0.009,-0.958,-50.0,-55.0,-10.0,-5.004,-0.061,-0.183,0.0,0.0,0
303,26.7,100696.0,0.011,-0.068,-0.86,-50.0,-55.0,-10.0,-25.573,-2.746,2.746,0.0,0.0,0
304,26.7,100702.0,0.017,-0.036,-0.909,-50.0,-55.0,-10.0,2.624,-2.319,-1.159,0.0,0.0,0
305,26.7,100696.0,0.04,-0.025,-0.998,-50.0,-55.0,-10.0,-15.014,-4.211,-6.225,0.0,0.0,0
306,26.7,100697.0,0.026,-0.019,-1.036,-50.0,-55.0,-10.0,-5.432,-5.981,-9.46,0.0,0.0,0
307,26.7,100706.0,0.018,0.054,-1.174,-50.0,-55.0,-10.0,15.014,18.615,-3.54,0.0,0.0,0
308,26.7,100693.0,0.127,-0.018,-0.893,-50.0,-55.0,-10.0,-31.372,-17.761,-22.644,0.0,0.0,0
309,26.7,100699.0,0.017,0.108,-1.081,-50.0,-55.0,-10.0,24.841,12.573,-13.0,0.0,0.0,0
310,26.7,100698.0,0.036,0.033,-0.91,-50.0,-55.0,-10.0,-33.447,-13.061,-16.174,0.0,0.0,0
311,26.7,100694.0,0.062,-0.04,-0.894,-50.0,-55.0,-10.0,-10.864,5.554,-10.131,0.0,0.0,0
312,26.7,100703.0,0.03,-0.04,-0.97,-50.0,-55.0,-10.0,-1.708,-3.601,1.281,0.0,0.0,0
313,26.7,100696.0,0.046,-0.028,-0.951,-50.0,-55.0,-10.0,-28.198,-7.69,22.705,0.0,0.0,0
314,26.7,100689.0,0.01,0.008,-1.06,-50.0,-55.0,-10.0,6.53,-0.61,17.578,0.0,0.0,0
315,26.7,100694.0,0.002,0.069,-1.118,-50.0,-55.0,-10.0,-3.295,-15.319,11.23,0.0,0.0,0
316,26.7,100678.0,0.019,-0.043,-1.024,-50.0,-55.0,-10.0,6.896,6.408,14.465,0.0,0.0,0
317,26.7,100689.0,0.01,0.028,-0.986,-50.0,-55.0,-10.0,14.77,-6.652,2.136,0.0,0.0,0
318,26.7,100691.0,-0.009,-0.017,-0.907,-50.0,-55.0,-10.0,-13.366,-11.108,-5.432,0.0,0.0,0
319,26.7,100689.0,0.033,-0.04,-0.93,-50.0,-55.0,-10.0,-6.347,1.159,8.85,0.0,0.0,0
320,26.7,100698.0,-0.007,-0.056,-1.013,-50.0,-55.0,-10.0,-0.061,-0.122,9.521,0.0,0.0,0
321,26.7,100698.0,0.07,-0.036,-1.028,-50.0,-55.0,-10.0,-8.239,-0.122,-11.352,0.0,0.0,0
322,26.7,100695.0,0.004,-0.048,-1.154,-50.0,-55.0,-10.0,-25.146,-18.859,-15.808,0.0,0.0,0
323,26.7,100696.0,0.119,-0.044,-1.03,-50.0,-55.0,-10.0,2.197,14.282,0.976,0.0,0.0,0
324,26.7,100700.0,0.115,-0.003,-0.997,-50.0,-55.0,-10.0,-13.488,3.112,-3.54,0.0,0.0,0
325,26.7,100703.0,0.035,0.129,-1.085,-50.0,-55.0,-10.0,4.089,18.554,13.916,0.0,0.0,0
326,26.7,100691.0,0.093,0.038,-0.811,-50.0,-55.0,-10.0,-8.361,-11.596,-9.033,0.0,0.0,0
327,26.7,100692.0,0.106,0.034,-0.94,-50.0,-55.0,-10.0,-12.878,8.544,-2.868,0.0,0.0,0
328,26.7,100701.0,0.123,0.027,-0.887,-50.0,-55.0,-10.0,0.366,0.549,-6.042,0.0,0.0,0
329,26.7,100696.0,0.057,0.083,-1.04,-50.0,-55.0,-10.0,-6.469,12.268,1.098,0.0,0.0,0
330,26.7,100696.0,0.085,-0.027,-0.989,-50.0,-55.0,-10.0,-1.525,-17.272,-20.935,0.0,0.0,0
331,26.7,100692.0,0.044,0.079,-1.004,-50.0,-55.0,-10.0,11.657,24.047,4.028,0.0,0.0,0
332,26.7,100690.0,0.057,-0.092,-1.053,-50.0,-55.0,-10.0,-2.685,-2.868,-9.46,0.0,0.0,0
333,26.7,100693.0,0.021,0.108,-1.019,-50.0,-55.0,-10.0,4.76,7.324,-1.403,0.0,0.0,0
334,26.7,100694.0,-0.008,0.048,-1.026,-50.0,-55.0,-10.0,-10.253,9.399,-15.014,0.0,0.0,0
335,26.7,100693.0,-0.02,0.014,-0.917,-50.0,-55.0,-10.0,-20.202,-10.62,-26.245,0.0,0.0,0
336,26.7,100689.0,0.026,-0.034,-0.901,-50.0,-55.0,-10.0,-11.23,-2.746,-20.629,0.0,0.0,0
337,26.7,100690.0,0.023,-0.019,-0.973,-50.0,-55.0,-10.0,3.234,-5.31,-34.423,0.0,0.0,0
338,26.7,100693.0,-0.026,0.009,-1.013,-50.0,-55.0,-10.0,-3.967,-15.563,-26.184,0.0,0.0,0
339,26.7,100693.0,0.063,-0.01,-0.938,-50.0,-55.0,-10.0,-5.371,-15.197,-38.696,0.0,0.0,0
340,26.7,100699.0,-0.012,0.022,-1.036,-50.0,-55.0,-10.0,11.84,18.371,-32.653,0.0,0.0,0
341,26.7,100695.0,0.041,-0.017,-0.958,-50.0,-55.0,-10.0,-16.906,-10.314,-29.174,0.0,0.0,0
342,26.7,100697.0,0.029,-0.031,-1.047,-50.0,-55.0,-10.0,6.164,2.563,2.136,0.0,0.0,0
343,26.7,100691.0,0.035,0.128,-0.987,-50.0,-55.0,-10.0,13.366,-20.69,-1.464,0.0,0.0,0
344,26.7,100696.0,0.091,0.035,-0.871,-50.0,-55.0,-10.0,-2.197,9.46,-13.61,0.0,0.0,0
345,26.799,100696.0,0.047,0.027,-1.008,-50.0,-55.0,-10.0,3.54,1.342,5.981,0.0,0.0,0
346,26.799,100695.0,0.08,0.021,-0.98,-50.0,-55.0,-10.0,-4.821,1.281,13.122,0.0,0.0,0
347,26.799,100702.0,0.085,0.011,-1.004,-50.0,-55.0,-10.0,-16.845,4.455,27.77,0.0,0.0,0
348,26.799,100697.0,0.105,0.069,-0.992,-50.0,-55.0,-10.0,-4.272,-2.99,27.709,0.0,0.0,0
349,26.7,100697.0,0.104,-0.028,-0.965,-50.0,-55.0,-10.0,-2.502,0.793,32.165,0.0,0.0,0
350,26.799,100694.0,0.045,0.052,-1.071,-50.0,-55.0,-10.0,2.197,2.502,54.687,0.0,0.0,0
351,26.799,100690.0,0.032,0.021,-1.04,-50.0,-55.0,-10.0,6.164,-8.666,37.353,0.0,0.0,0
352,26.799,100699.0,0.023,0.004,-1.046,-50.0,-55.0,-10.0,-7.507,-10.986,23.559,0.0,0.0,0
353,26.799,100699.0,0.02,0.061,-0.984,-50.0,-55.0,-10.0,1.525,1.892,18.31,0.0,0.0,0
354,26.799,100700.0,0.045,0.027,-0.995,-50.0,-55.0,-10.0,-15.441,-3.417,19.47,0.0,0.0,0
355,26.799,100695.0,0.018,0.058,-0.927,-50.0,-55.0,-10.0,-19.47,-10.009,10.314,0.0,0.0,0
356,26.799,100701.0,0.056,-0.014,-0.879,-50.0,-55.0,-10.0,-4.577,-9.46,8.239,0.0,0.0,0
357,26.7,100695.0,0.032,0.02,-0.982,-50.0,-55.0,-10.0,-8.666,4.516,9.643,0.0,0.0,0
358,26.799,100693.0,0.056,0.002,-0.993,-50.0,-55.0,-10.0,-8.911,-8.117,13.366,0.0,0.0,0
359,26.799,100693.0,0.086,-0.027,-1.028,-50.0,-55.0,-10.0,-5.371,-3.601,13.427,0.0,0.0,0
360,26.799,100692.0,0.011,0.01,-1.13,-50.0,-55.0,-10.0,3.234,6.408,29.663,0.0,0.0,0
361,26.799,100689.0,0.052,0.048,-0.932,-50.0,-55.0,-10.0,-14.221,-14.831,13.916,0.0,0.0,0
362,26.799,100692.0,0.091,-0.001,-1.001,-50.0,-55.0,-10.0,4.943,14.892,26.733,0.0,0.0,0
363,26.799,100692.0,0.082,0.079,-0.987,-50.0,-55.0,-10.0,-0.732,9.338,3.356,0.0,0.0,0
364,26.799,100693.0,0.104,0.042,-0.969,-50.0,-55.0,-10.0,-18.005,0.244,15.014,0.0,0.0,0
365,26.799,100708.0,0.155,0.058,-0.924,-50.0,-55.0,-10.0,-8.666,5.249,21.728,0.0,0.0,0
366,26.799,100699.0,0.108,0.031,-1.084,-50.0,-55.0,-10.0,-9.155,3.417,16.235,0.0,0.0,0
367,26.799,100703.0,0.028,0.058,-1.012,-50.0,-55.0,-10.0,-6.896,-0.183,3.967,0.0,0.0,0
368,26.799,100702.0,0.072,-0.052,-0.966,-50.0,-55.0,-10.0,0.366,-28.198,-2.075,0.0,0.0,0
369,26.799,100706.0,0.011,0.042,-1.035,-50.0,-55.0,-10.0,6.164,12.573,-20.751,0.0,0.0,0
370,26.799,100701.0,0.018,-0.06,-0.965,-50.0,-55.0,-10.0,6.591,-7.324,-20.874,0.0,0.0,0
371,26.799,100705.0,0.027,-0.122,-0.905,-50.0,-55.0,-10.0,0.549,-6.713,-20.141,0.0,0.0,0
372,26.799,100703.0,0.0,-0.023,-0.942,-50.0,-55.0,-10.0,4.211,7.385,-13.671,0.0,0.0,0
373,26.799,100700.0,0.021,-0.087,-0.973,-50.0,-55.0,-10.0,9.704,1.953,-12.145,0.0,0.0,0
374,26.799,100700.0,-0.005,-0.083,-0.961,-50.0,-55.0,-10.0,-3.845,-5.187,-12.145,0.0,0.0,0
375,26.799,100698.0,0.036,-0.038,-1.109,-50.0,-55.0,-10.0,-20.935,3.051,0.488,0.0,0.0,0
376,26.799,100700.0,0.068,-0.054,-0.932,-50.0,-55.0,-10.0,-16.54,-13.305,-18.615,0.0,0.0,0
377,26.799,100698.0,0.086,-0.111,-1.111,-50.0,-55.0,-10.0,-0.061,11.413,5.249,0.0,0.0,0
378,26.799,100696.0,0.049,0.07,-1.118,-50.0,-55.0,-10.0,-4.455,-27.893,-16.113,0.0,0.0,0
379,26.799,100692.0,0.054,0.046,-0.951,-50.0,-55.0,-10.0,4.028,14.587,-4.455,0.0,0.0,0
380,26.799,100696.0,0.05,0.0,-0.923,-50.0,-55.0,-10.0,-8.789,7.019,-7.202,0.0,0.0,0
381,26.799,100700.0,0.107,-0.05,-0.923,-50.0,-55.0,-10.0,0.427,10.864,0.488,0.0,0.0,0
382,26.799,100691.0,0.061,0.001,-0.973,-50.0,-55.0,-10.0,20.874,18.127,10.192,0.0,0.0,0
383,26.799,100694.0,0.04,0.003,-0.966,-50.0,-55.0,-10.0,-30.395,-8.178,0.183,0.0,0.0,0
384,26.799,100703.0,-0.002,0.011,-1.109,-50.0,-55.0,-10.0,-28.32,-10.192,12.878,0.0,0.0,0
385,26.799,100702.0,-0.016,-0.091,-1.079,-50.0,-55.0,-10.0,-17.944,-4.15,6.958,0.0,0.0,0
386,26.799,100704.0,0.0,0.043,-1.094,-50.0,-55.0,-10.0,11.23,10.62,25.39,0.0,0.0,0
387,26.799,100698.0,-0.032,-0.019,-0.954,-50.0,-55.0,-10.0,-14.465,23.193,16.967,0.0,0.0,0
388,26.799,100694.0,-0.052,0.027,-0.958,-50.0,-55.0,-10.0,18.127,-11.352,14.953,0.0,0.0,0
389,26.799,100697.0,-0.02,-0.042,-0.846,-50.0,-55.0,-10.0,-17.639,-12.878,6.774,0.0,0.0,0
390,26.799,100698.0,0.007,-0.074,-0.931,-50.0,-55.0,-10.0,7.263,-9.521,6.042,0.0,0.0,0
391,26.799,100695.0,0.008,-0.046,-0.94,-50.0,-55.0,-10.0,-5.31,-3.784,8.972,0.0,0.0,0
392,26.799,100697.0,0.004,-0.045,-1.051,-50.0,-55.0,-10.0,-18.554,-10.131,-4.76,0.0,0.0,0
393,26.799,100704.0,0.083,-0.044,-1.094,-50.0,-55.0,-10.0,-15.686,-7.385,7.934,0.0,0.0,0
394,26.799,100696.0,0.125,0.004,-1.149,-50.0,-55.0,-10.0,18.371,-19.531,-11.169,0.0,0.0,0
395,26.799,100700.0,0.079,-0.01,-0.96,-50.0,-55.0,-10.0,-22.094,-10.253,-7.751,0.0,0.0,0
396,26.799,100702.0,0.174,-0.002,-0.946,-50.0,-55.0,-10.0,0.854,-1.037,-20.202,0.0,0.0,0
397,26.799,100702.0,0.125,-0.018,-0.87,-50.0,-55.0,-10.0,-11.291,15.014,-3.601,0.0,0.0,0
398,26.799,100703.0,0.103,-0.039,-0.839,-50.0,-55.0,-10.0,-25.512,-7.08,-6.958,0.0,0.0,0
399,26.799,100700.0,0.15,-0.052,-0.93,-50.0,-55.0,-10.0,-10.559,19.531,3.295,0.0,0.0,0
400,26.799,100705.0,0.11,-0.084,-0.984,-50.0,-55.0,-10.0,-18.92,23.986,15.747,0.0,0.0,0
401,26.799,100701.0,0.054,-0.023,-1.115,-50.0,-55.0,-10.0,9.216,-35.217,2.075,0.0,0.0,0
402,26.799,100701.0,0.07,-0.034,-1.036,-50.0,-55.0,-10.0,-10.498,6.225,16.845,0.0,0.0,0
403,26.799,100695.0,0.025,0.002,-1.126,-50.0,-55.0,-10.0,24.963,-22.583,7.08,0.0,0.0,0
404,26.799,100701.0,0.01,0.015,-0.92,-50.0,-55.0,-10.0,-1.892,13.671,8.789,0.0,0.0,0
405,26.799,100698.0,0.049,-0.105,-0.86,-50.0,-55.0,-10.0,-14.404,9.033,25.024,0.0,0.0,0
406,26.799,100694.0,-0.012,-0.039,-0.938,-50.0,-55.0,-10.0,3.295,-4.211,9.46,0.0,0.0,0
407,26.799,100693.0,0.022,-0.054,-0.948,-50.0,-55.0,-10.0,-23.01,9.887,19.348,0.0,0.0,0
408,26.799,100699.0,0.036,-0.012,-1.087,-50.0,-55.0,-10.0,-20.385,-16.662,-4.272,0.0,0.0,0
409,26.799,100696.0,0.075,-0.058,-1.096,-50.0,-55.0,-10.0,2.685,6.591,5.981,0.0,0.0,0
410,26.799,100690.0,0.097,0.016,-0.957,-50.0,-55.0,-10.0,-17.944,-23.315,-1.892,0.0,0.0,0
411,26.799,100700.0,0.076,-0.021,-0.983,-50.0,-55.0,-10.0,17.639,8.972,-4.638,0.0,0.0,0
412,26.799,100691.0,-0.015,0.038,-0.911,-50.0,-55.0,-10.0,2.014,8.117,5.249,0.0,0.0,0
413,26.799,100696.0,0.06,-0.026,-0.892,-50.0,-55.0,-10.0,-9.643,0.061,10.62,0.0,0.0,0
414,26.799,100698.0,0.083,-0.024,-0.94,-50.0,-55.0,-10.0,3.662,-1.647,23.376,0.0,0.0,0
415,26.799,100700.0,0.124,0.047,-1.041,-50.0,-55.0,-10.0,-5.798,-3.234,22.277,0.0,0.0,0
416,26.799,100705.0,0.052,0.004,-1.058,-50.0,-55.0,-10.0,-11.047,-17.333,25.756,0.0,0.0,0
417,26.799,100702.0,0.075,0.088,-1.107,-50.0,-55.0,-10.0,-1.77,10.803,31.188,0.0,0.0,0
418,26.799,100698.0,0.056,-0.097,-1.016,-50.0,-55.0,-10.0,-12.084,2.868,23.315,0.0,0.0,0
419,26.799,100696.0,0.033,0.064,-0.942,-50.0,-55.0,-10.0,17.944,1.647,16.662,0.0,0.0,0
420,26.799,100700.0,0.055,0.008,-0.93,-50.0,-55.0,-10.0,-9.094,6.53,8.422,0.0,0.0,0
421,26.799,100692.0,0.064,-0.047,-0.91,-50.0,-55.0,-10.0,-10.864,-6.713,7.202,0.0,0.0,0
422,26.799,100695.0,0.057,-0.016,-0.899,-50.0,-55.0,-10.0,-5.859,0.915,8.666,0.0,0.0,0
423,26.799,100690.0,0.075,-0.01,-1.036,-50.0,-55.0,-10.0,-1.708,-1.77,-10.681,0.0,0.0,0
424,26.799,100697.0,0.064,-0.024,-1.062,-50.0,-55.0,-10.0,-17.395,3.417,-3.112,0.0,0.0,0
425,26.799,100696.0,0.088,0.079,-1.128,-50.0,-55.0,-10.0,30.029,-13.732,-14.221,0.0,0.0,0
426,26.799,100699.0,0.125,-0.025,-0.933,-50.0,-55.0,-10.0,-20.446,-21.057,-31.494,0.0,0.0,0
427,26.799,100697.0,0.101,0.064,-0.98,-50.0,-55.0,-10.0,11.23,27.77,-14.587,0.0,0.0,0
428,26.799,100696.0,0.087,-0.037,-0.852,-50.0,-55.0,-10.0,-22.705,-9.155,-14.77,0.0,0.0,0
429,26.799,100691.0,0.106,-0.008,-0.914,-50.0,-55.0,-10.0,5.92,7.69,-4.577,0.0,0.0,0
430,26.799,100687.0,0.098,-0.011,-0.93,-50.0,-55.0,-10.0,-11.291,4.516,-3.234,0.0,0.0,0
431,26.799,100697.0,0.113,-0.027,-1.068,-50.0,-55.0,-10.0,-16.479,-3.295,14.343,0.0,0.0,0
432,26.799,100699.0,0.136,0.069,-1.177,-50.0,-55.0,-10.0,18.676,3.173,7.019,0.0,0.0,0
433,26.799,100695.0,0.039,0.02,-0.945,-50.0,-55.0,-10.0,-30.639,-24.963,-5.249,0.0,0.0,0
434,26.799,100699.0,0.075,0.044,-1.043,-50.0,-55.0,-10.0,17.944,-4.821,3.356,0.0,0.0,0
435,26.899,100688.0,0.06,0.005,-0.946,-50.0,-55.0,-10.0,-20.08,-6.347,-5.615,0.0,0.0,0
436,26.899,100691.0,0.041,-0.053,-0.875,-50.0,-55.0,-10.0,-13.183,4.638,-1.159,0.0,0.0,0
437,26.799,100690.0,0.07,-0.03,-0.917,-50.0,-55.0,-10.0,-0.976,3.356,-0.915,0.0,0.0,0
438,26.899,100701.0,0.05,-0.024,-0.965,-50.0,-55.0,-10.0,-14.465,8.178,-5.981,0.0,0.0,0
439,26.899,100695.0,0.058,-0.098,-0.976,-50.0,-55.0,-10.0,-10.498,7.751,-0.915,0.0,0.0,0
440,26.899,100693.0,0.052,-0.027,-1.079,-50.0,-55.0,-10.0,-2.685,-14.282,5.31,0.0,0.0,0
441,26.799,100694.0,0.136,0.0,-1.105,-50.0,-55.0,-10.0,10.314,0.183,-12.268,0.0,0.0,0
442,26.899,100694.0,0.105,-0.053,-1.018,-50.0,-55.0,-10.0,-5.065,9.033,-3.173,0.0,0.0,0
443,26.899,100694.0,0.059,0.016,-0.908,-50.0,-55.0,-10.0,-0.976,-0.915,-14.831,0.0,0.0,0
444,26.899,100695.0,0.065,-0.041,-0.895,-50.0,-55.0,-10.0,-1.77,4.15,-13.122,0.0,0.0,0
445,26.899,100695.0,0.092,-0.027,-0.927,-50.0,-55.0,-10.0,-6.408,6.652,-2.563,0.0,0.0,0
446,26.899,100695.0,0.104,-0.085,-0.93,-50.0,-55.0,-10.0,-12.512,-10.925,1.159,0.0,0.0,0
447,26.899,100691.0,0.091,-0.044,-1.053,-50.0,-55.0,-10.0,-11.047,2.929,16.296,0.0,0.0,0
448,26.899,100698.0,0.101,-0.015,-1.086,-50.0,-55.0,-10.0,5.493,-5.676,0.488,0.0,0.0,0
449,26.899,100693.0,0.03,0.04,-1.138,-50.0,-55.0,-10.0,-7.812,6.408,15.625,0.0,0.0,0
450,26.899,100697.0,0.068,-0.041,-1.077,-50.0,-55.0,-10.0,4.394,-17.089,1.403,0.0,0.0,0
451,26.899,100685.0,0.045,-0.001,-0.906,-50.0,-55.0,-10.0,-8.605,-1.831,-3.54,0.0,0.0,0
452,26.799,100700.0,0.031,-0.063,-0.895,-50.0,-55.0,-10.0,-10.925,2.075,2.319,0.0,0.0,0
453,26.899,100692.0,0.087,-0.042,-0.914,-50.0,-55.0,-10.0,-1.708,-6.53,-4.333,0.0,0.0,0
454,26.899,100696.0,0.079,-0.05,-0.926,-50.0,-55.0,-10.0,-6.042,10.437,-2.868,0.0,0.0,0
455,26.899,100694.0,0.08,-0.061,-1.008,-50.0,-55.0,-10.0,-9.338,-12.817,-16.235,0.0,0.0,0
456,26.899,100693.0,0.1,-0.045,-1.035,-50.0,-55.0,-10.0,0.427,11.291,2.99,0.0,0.0,0
457,26.899,100693.0,0.087,0.053,-1.214,-50.0,-55.0,-10.0,26.55,-2.38,-14.282,0.0,0.0,0
458,26.899,100693.0,0.166,-0.096,-0.957,-50.0,-55.0,-10.0,-27.893,-11.352,-20.568,0.0,0.0,0
459,26.899,100689.0,0.084,0.045,-1.033,-50.0,-55.0,-10.0,23.071,18.859,-10.864,0.0,0.0,0
460,26.899,100690.0,0.078,0.0,-0.868,-50.0,-55.0,-10.0,-20.812,0.244,-16.601,0.0,0.0,0
461,26.899,100693.0,0.106,-0.031,-0.858,-50.0,-55.0,-10.0,-14.77,11.108,-7.019,0.0,0.0,0
462,26.899,100695.0,0.091,-0.019,-0.931,-50.0,-55.0,-10.0,-4.028,-7.507,-6.103,0.0,0.0,0
463,26.899,100699.0,0.119,-0.057,-1.041,-50.0,-55.0,-10.0,-13.122,4.455,7.568,0.0,0.0,0
464,26.899,100697.0,0.085,-0.061,-1.058,-50.0,-55.0,-10.0,12.634,-9.155,7.812,0.0,0.0,0
465,26.899,100692.0,0.088,0.138,-1.224,-50.0,-55.0,-10.0,18.615,-4.76,11.413,0.0,0.0,0
466,26.899,100692.0,0.061,-0.027,-1.13,-50.0,-55.0,-10.0,-11.962,3.051,-2.929,0.0,0.0,0
467,26.899,100688.0,0.024,0.029,-0.92,-50.0,-55.0,-10.0,1.831,9.765,-1.586,0.0,0.0,0
468,26.899,100690.0,0.026,-0.031,-0.857,-50.0,-55.0,-10.0,-24.902,1.525,-3.723,0.0,0.0,0
469,26.899,100691.0,0.062,-0.053,-0.878,-50.0,-55.0,-10.0,-5.737,-6.286,-2.319,0.0,0.0,0
470,26.899,100695.0,0.052,-0.05,-0.906,-50.0,-55.0,-10.0,-9.155,-1.892,-4.394,0.0,0.0,0
471,26.899,100697.0,0.111,-0.07,-1.034,-50.0,-55.0,-10.0,-14.038,-29.541,-22.338,0.0,0.0,0
472,26.899,100704.0,0.122,-0.111,-1.06,-50.0,-55.0,-10.0,-0.305,8.361,-11.352,0.0,0.0,0
473,26.899,100693.0,0.04,0.112,-1.221,-50.0,-55.0,-10.0,32.287,45.654,0.061,0.0,0.0,0
474,26.899,100690.0,0.099,0.006,-1.116,-50.0,-55.0,-10.0,-11.291,-7.202,-21.911,0.0,0.0,0
475,26.899,100699.0,0.066,0.009,-0.876,-50.0,-55.0,-10.0,-10.559,10.131,-5.493,0.0,0.0,0
476,26.899,100695.0,0.061,-0.059,-0.82,-50.0,-55.0,-10.0,-23.864,-8.3,-15.014,0.0,0.0,0
477,26.899,100694.0,0.084,-0.073,-0.915,-50.0,-55.0,-10.0,-16.479,3.234,0.732,0.0,0.0,0
478,26.899,100692.0,0.056,-0.066,-0.915,-50.0,-55.0,-10.0,-16.235,-7.873,5.432,0.0,0.0,0
479,26.899,100695.0,0.072,-0.072,-1.094,-50.0,-55.0,-10.0,-16.357,12.39,20.751,0.0,0.0,0
480,26.899,100695.0,0.05,-0.069,-1.147,-50.0,-55.0,-10.0,17.333,-9.094,12.023,0.0,0.0,0
481,26.899,100693.0,0.013,-0.061,-0.997,-50.0,-55.0,-10.0,-8.056,-3.479,16.845,0.0,0.0,0
482,26.899,100692.0,0.006,0.027,-1.03,-50.0,-55.0,-10.0,22.827,-9.826,19.104,0.0,0.0,0
483,26.899,100692.0,0.041,-0.049,-0.853,-50.0,-55.0,-10.0,-17.211,-13.732,-0.061,0.0,0.0,0
484,26.899,100689.0,0.074,-0.084,-0.886,-50.0,-55.0,-10.0,-9.643,-0.061,7.69,0.0,0.0,0
485,26.899,100698.0,0.021,-0.021,-0.928,-50.0,-55.0,-10.0,-2.807,7.995,9.277,0.0,0.0,0
486,26.899,100695.0,0.056,-0.09,-0.972,-50.0,-55.0,-10.0,-28.442,0.366,-5.004,0.0,0.0,0
487,26.899,100692.0,0.117,-0.093,-1.022,-50.0,-55.0,-10.0,0.976,7.019,0.549,0.0,0.0,0
488,26.899,100699.0,0.078,0.041,-1.198,-50.0,-55.0,-10.0,17.639,18.31,-6.347,0.0,0.0,0
489,26.899,100692.0,0.094,-0.077,-0.996,-50.0,-55.0,-10.0,-9.582,-1.708,-18.249,0.0,0.0,0
490,26.899,100699.0,0.066,0.023,-0.898,-50.0,-55.0,-10.0,11.962,-7.141,-12.634,0.0,0.0,0
491,26.899,100698.0,0.022,-0.043,-0.851,-50.0,-55.0,-10.0,-16.784,-2.38,-11.23,0.0,0.0,0
492,26.899,100704.0,0.08,-0.045,-0.935,-50.0,-55.0,-10.0,-3.234,4.455,2.075,0.0,0.0,0
493,26.899,100686.0,0.08,-0.059,-0.908,-50.0,-55.0,-10.0,-19.104,-13.977,1.647,0.0,0.0,0
494,26.899,100702.0,0.101,-0.038,-1.077,-50.0,-55.0,-10.0,-12.939,9.826,21.118,0.0,0.0,0
495,26.899,100699.0,0.109,-0.047,-1.083,-50.0,-55.0,-10.0,6.591,-8.178,7.08,0.0,0.0,0
496,26.899,100702.0,0.02,0.0,-0.955,-50.0,-55.0,-10.0,-13.854,-9.521,9.399,0.0,0.0,0
497,26.899,100702.0,0.051,-0.014,-1.041,-50.0,-55.0,-10.0,17.578,-6.896,11.352,0.0,0.0,0
498,26.899,100691.0,0.033,-0.053,-0.891,-50.0,-55.0,-10.0,-2.563,-1.647,0.671,0.0,0.0,0
499,26.899,100700.0,0.029,-0.069,-0.882,-50.0,-55.0,-10.0,-15.075,7.751,4.699,0.0,0.0,0
500,26.899,100699.0,0.017,-0.065,-0.92,-50.0,-55.0,-10.0,0.061,-0.366,5.554,0.0,0.0,0
501,26.899,100700.0,0.052,-0.069,-1.039,-50.0,-55.0,-10.0,-15.136,7.507,-6.164,0.0,0.0,0
502,26.899,100697.0,0.071,-0.037,-1.1,-50.0,-55.0,-10.0,-10.803,4.577,-5.126,0.0,0.0,0
503,26.899,100701.0,0.039,-0.085,-1.073,-50.0,-55.0,-10.0,-9.094,9.155,-8.3,0.0,0.0,0
504,26.899,100694.0,0.097,-0.118,-0.948,-50.0,-55.0,-10.0,7.568,-18.92,-25.512,0.0,0.0,0
505,26.899,100697.0,0.03,-0.015,-1.059,-50.0,-55.0,-10.0,13.488,3.417,7.385,0.0,0.0,0
506,26.899,100699.0,0.059,0.015,-0.899,-50.0,-55.0,-10.0,-4.15,-5.92,-12.939,0.0,0.0,0
507,26.899,100699.0,0.087,-0.061,-0.877,-50.0,-55.0,-10.0,-4.272,-14.465,-3.173,0.0,0.0,0
508,26.899,100689.0,0.055,-0.032,-0.982,-50.0,-55.0,-10.0,-19.226,-4.638,4.15,0.0,0.0,0
509,26.899,100700.0,0.113,-0.079,-1.011,-50.0,-55.0,-10.0,-5.371,-0.305,13.916,0.0,0.0,0
510,26.899,100703.0,0.082,-0.068,-1.051,-50.0,-55.0,-10.0,-14.16,-22.766,4.516,0.0,0.0,0
511,26.899,100701.0,0.089,0.083,-1.083,-50.0,-55.0,-10.0,27.282,4.638,33.142,0.0,0.0,0
512,26.899,100700.0,0.095,-0.078,-0.968,-50.0,-55.0,-10.0,-15.319,-16.418,-5.981,0.0,0.0,0
513,26.899,100703.0,0.086,0.077,-0.976,-50.0,-55.0,-10.0,12.573,24.841,46.264,0.0,0.0,0
514,26.899,100698.0,0.074,0.033,-0.948,-50.0,-55.0,-10.0,-0.976,1.586,8.361,0.0,0.0,0
515,26.899,100701.0,0.062,-0.048,-0.898,-50.0,-55.0,-10.0,-19.958,3.967,3.601,0.0,0.0,0
516,26.899,100703.0,0.064,-0.015,-0.941,-50.0,-55.0,-10.0,-7.995,-10.375,-4.333,0.0,0.0,0
517,26.899,100700.0,0.114,-0.14,-0.937,-50.0,-55.0,-10.0,-13.183,-3.356,-22.216,0.0,0.0,0
518,26.899,100693.0,0.023,0.03,-1.14,-50.0,-55.0,-10.0,-5.981,18.249,3.234,0.0,0.0,0
519,26.899,100694.0,0.088,0.005,-1.034,-50.0,-55.0,-10.0,-8.483,8.3,-7.385,0.0,0.0,0
520,26.899,100694.0,0.171,-0.166,-0.973,-50.0,-55.0,-10.0,-6.042,-6.164,-7.507,0.0,0.0,0
521,26.899,100695.0,0.053,0.105,-1.031,-50.0,-55.0,-10.0,23.681,14.038,8.789,0.0,0.0,0
522,26.899,100696.0,0.07,0.053,-0.869,-50.0,-55.0,-10.0,-11.718,0.976,-16.418,0.0,0.0,0
523,26.899,100696.0,0.124,-0.066,-0.879,-50.0,-55.0,-10.0,-12.329,-2.685,-8.3,0.0,0.0,0
524,26.899,100698.0,0.086,-0.038,-0.971,-50.0,-55.0,-10.0,-7.995,-7.263,3.112,0.0,0.0,0
525,26.899,100692.0,0.043,-0.012,-1.07,-50.0,-55.0,-10.0,-28.93,-7.995,23.132,0.0,0.0,0
526,26.899,100695.0,0.083,-0.103,-1.031,-50.0,-55.0,-10.0,-24.414,-10.742,13.488,0.0,0.0,0
527,26.899,100699.0,0.074,0.0,-1.111,-50.0,-55.0,-10.0,19.409,11.352,41.625,0.0,0.0,0
528,26.899,100698.0,0.147,-0.093,-0.937,-50.0,-55.0,-10.0,-7.08,-18.188,16.479,0.0,0.0,0
529,26.899,100700.0,0.038,0.029,-0.923,-50.0,-55.0,-10.0,19.531,10.559,13.854,0.0,0.0,0
530,26.899,100699.0,0.032,0.013,-0.979,-50.0,-55.0,-10.0,0.427,11.413,5.981,0.0,0.0,0
531,26.899,100699.0,0.042,-0.077,-0.895,-50.0,-55.0,-10.0,-9.765,-9.643,-0.122,0.0,0.0,0
532,26.899,100694.0,-0.002,-0.003,-0.963,-50.0,-55.0,-10.0,-9.582,12.268,4.516,0.0,0.0,0
533,26.899,100700.0,0.063,-0.093,-1.001,-50.0,-55.0,-10.0,-15.319,0.854,-0.915,0.0,0.0,0
534,26.899,100695.0,0.125,0.033,-1.064,-50.0,-55.0,-10.0,-2.746,2.136,20.568,0.0,0.0,0
535,26.899,100695.0,0.114,-0.09,-1.008,-50.0,-55.0,-10.0,-0.671,1.77,-14.953,0.0,0.0,0
536,26.899,100700.0,0.084,-0.056,-1.054,-50.0,-55.0,-10.0,-2.685,1.892,-1.342,0.0,0.0,0
537,26.899,100695.0,0.098,0.107,-0.983,-50.0,-55.0,-10.0,21.362,13.793,28.564,0.0,0.0,0
538,26.899,100697.0,0.102,0.016,-0.919,-50.0,-55.0,-10.0,4.516,-8.544,-17.028,0.0,0.0,0
539,26.899,100699.0,0.088,-0.025,-0.905,-50.0,-55.0,-10.0,-13.793,17.639,-10.314,0.0,0.0,0
540,26.899,100699.0,0.035,0.015,-0.985,-50.0,-55.0,-10.0,-4.394,-3.295,1.037,0.0,0.0,0
541,26.899,100700.0,0.035,-0.011,-1.012,-50.0,-55.0,-10.0,-21.85,-0.488,-1.953,0.0,0.0,0
542,26.899,100698.0,0.0,-0.019,-0.964,-50.0,-55.0,-10.0,-12.145,5.859,-4.211,0.0,0.0,0
543,26.899,100695.0,0.1,-0.025,-1.165,-50.0,-55.0,-10.0,18.432,-9.399,39.306,0.0,0.0,0
544,26.899,100693.0,0.038,0.079,-0.948,-50.0,-55.0,-10.0,-3.662,-9.399,-8.422,0.0,0.0,0
545,26.899,100695.0,0.076,0.044,-0.989,-50.0,-55.0,-10.0,16.479,4.028,30.578,0.0,0.0,0
546,26.899,100699.0,0.029,0.035,-1.001,-50.0,-55.0,-10.0,17.944,3.051,-7.568,0.0,0.0,0
547,26.899,100701.0,-0.032,-0.07,-0.894,-50.0,-55.0,-10.0,-28.442,-3.601,-21.667,0.0,0.0,0
548,26.899,100697.0,-0.001,-0.03,-0.949,-50.0,-55.0,-10.0,-8.056,-9.704,1.037,0.0,0.0,0
549,26.899,100695.0,0.066,-0.066,-1.046,-50.0,-55.0,-10.0,-10.986,16.418,-20.874,0.0,0.0,0
550,26.899,100699.0,0.061,0.112,-1.038,-50.0,-55.0,-10.0,-11.596,-11.474,17.7,0.0,0.0,0
551,26.899,100700.0,0.188,-0.131,-1.027,-50.0,-55.0,-10.0,5.493,-20.385,-22.644,0.0,0.0,0
552,26.899,100698.0,0.093,-0.017,-0.998,-50.0,-55.0,-10.0,-9.155,-5.126,-11.352,0.0,0.0,0
553,26.899,100693.0,0.099,0.026,-1.024,-50.0,-55.0,-10.0,17.517,6.958,4.943,0.0,0.0,0
554,26.899,100695.0,0.008,0.094,-0.789,-50.0,-55.0,-10.0,-24.475,13.854,-16.662,0.0,0.0,0
555,26.899,100702.0,0.133,-0.135,-0.832,-50.0,-55.0,-10.0,-6.896,6.958,-10.192,0.0,0.0,0
556,26.899,100699.0,0.063,0.062,-1.136,-50.0,-55.0,-10.0,0.427,19.287,14.526,0.0,0.0,0
557,26.899,100695.0,0.015,0.089,-1.011,-50.0,-55.0,-10.0,-26.123,-28.076,12.878,0.0,0.0,0
558,26.899,100698.0,0.083,-0.086,-1.076,-50.0,-55.0,-10.0,14.099,17.333,35.278,0.0,0.0,0
559,26.899,100698.0,0.056,-0.016,-0.958,-50.0,-55.0,-10.0,-4.638,-33.264,8.85,0.0,0.0,0
560,26.899,100701.0,-0.008,0.11,-1.047,-50.0,-55.0,-10.0,20.935,22.705,20.996,0.0,0.0,0
561,26.899,100705.0,0.045,0.072,-0.948,-50.0,-55.0,-10.0,-10.986,-33.081,5.493,0.0,0.0,0
562,26.899,100695.0,0.022,0.037,-0.915,-50.0,-55.0,-10.0,-15.808,-1.77,1.708,0.0,0.0,0
563,26.899,100696.0,0.02,0.031,-0.967,-50.0,-55.0,-10.0,0.549,-11.169,-4.15,0.0,0.0,0
564,26.899,100694.0,0.096,-0.176,-0.998,-50.0,-55.0,-10.0,-21.179,-6.469,-13.183,0.0,0.0,0
565,26.899,100695.0,0.134,0.001,-1.033,-50.0,-55.0,-10.0,-0.549,1.953,-9.338,0.0,0.0,0
566,26.899,100695.0,0.112,-0.152,-1.019,-50.0,-55.0,-10.0,-13.549,-15.258,-17.517,0.0,0.0,0
567,26.899,100695.0,0.052,0.055,-0.976,-50.0,-55.0,-10.0,10.925,10.437,12.573,0.0,0.0,0
568,26.899,100695.0,0.089,0.11,-1.015,-50.0,-55.0,-10.0,0.488,-9.155,9.704,0.0,0.0,0
569,26.899,100699.0,0.101,-0.001,-0.946,-50.0,-55.0,-10.0,-19.165,3.784,-6.591,0.0,0.0,0
570,26.899,100692.0,0.193,-0.015,-0.896,-50.0,-55.0,-10.0,-5.249,-5.187,1.22,0.0,0.0,0
571,26.899,100692.0,0.185,0.01,-0.907,-50.0,-55.0,-10.0,-16.54,14.282,-9.948,0.0,0.0,0
572,26.899,100691.0,0.012,0.053,-1.204,-50.0,-55.0,-10.0,-13.366,14.465,-5.676,0.0,0.0,0
573,26.899,100690.0,0.214,-0.083,-0.859,-50.0,-55.0,-10.0,0.366,-31.921,-2.99,0.0,0.0,0
574,26.899,100702.0,0.064,0.083,-1.03,-50.0,-55.0,-10.0,19.348,11.596,18.371,0.0,0.0,0
575,26.899,100696.0,0.124,0.001,-0.902,-50.0,-55.0,-10.0,-4.028,-3.967,-3.662,0.0,0.0,0
576,26.899,100699.0,0.053,0.155,-0.997,-50.0,-55.0,-10.0,-1.831,17.395,-1.831,0.0,0.0,0
577,26.899,100701.0,0.117,-0.013,-0.917,-50.0,-55.0,-10.0,2.807,-17.211,-39.611,0.0,0.0,0
578,26.899,100703.0,0.09,0.017,-0.908,-50.0,-55.0,-10.0,-20.019,6.164,-50.17,0.0,0.0,0
579,26.899,100694.0,0.033,0.02,-1.051,-50.0,-55.0,-10.0,-2.014,-23.986,-43.273,0.0,0.0,0
580,26.899,100694.0,0.007,0.113,-0.966,-50.0,-55.0,-10.0,-3.234,18.31,-26.0,0.0,0.0,0
581,26.899,100695.0,0.165,-0.095,-1.003,-50.0,-55.0,-10.0,-1.098,0.61,1.281,0.0,0.0,0
582,26.899,100697.0,0.037,0.132,-1.073,-50.0,-55.0,-10.0,22.827,36.621,12.084,0.0,0.0,0
583,26.899,100692.0,0.098,0.023,-0.882,-50.0,-55.0,-10.0,-27.709,-32.226,-14.648,0.0,0.0,0
584,26.899,100701.0,0.109,-0.04,-1.0,-50.0,-55.0,-10.0,-7.812,6.103,3.723,0.0,0.0,0
585,26.899,100696.0,0.082,0.09,-0.982,-50.0,-55.0,-10.0,-6.164,12.573,14.16,0.0,0.0,0
586,26.899,100702.0,0.104,-0.028,-0.985,-50.0,-55.0,-10.0,-32.47,-4.699,5.187,0.0,0.0,0
587,26.899,100699.0,0.132,-0.131,-0.966,-50.0,-55.0,-10.0,-0.915,13.427,11.108,0.0,0.0,0
588,26.899,100694.0,0.059,0.092,-1.149,-50.0,-55.0,-10.0,9.46,14.099,48.767,0.0,0.0,0
589,26.899,100700.0,0.096,-0.02,-1.047,-50.0,-55.0,-10.0,-4.272,-31.005,40.588,0.0,0.0,0
590,26.899,100693.0,0.089,0.017,-0.882,-50.0,-55.0,-10.0,3.173,10.864,34.729,0.0,0.0,0
591,26.899,100698.0,0.005,0.117,-0.936,-50.0,-55.0,-10.0,-5.432,-7.08,17.272,0.0,0.0,0
592,26.899,100699.0,0.061,-0.052,-0.81,-50.0,-55.0,-10.0,-23.62,-8.728,-1.647,0.0,0.0,0
593,26.899,100698.0,0.052,0.003,-0.908,-50.0,-55.0,-10.0,-6.835,4.028,5.004,0.0,0.0,0
594,26.899,100700.0,0.079,-0.054,-1.034,-50.0,-55.0,-10.0,-0.549,5.859,-2.197,0.0,0.0,0
595,26.899,100700.0,0.085,0.037,-1.059,-50.0,-55.0,-10.0,-6.835,-23.681,-11.352,0.0,0.0,0
596,26.899,100699.0,0.106,-0.028,-1.113,-50.0,-55.0,-10.0,-3.356,30.822,4.76,0.0,0.0,0
597,26.899,100699.0,0.171,-0.02,-0.97,-50.0,-55.0,-10.0,-0.427,-12.451,15.869,0.0,0.0,0
598,26.899,100699.0,0.124,0.129,-0.955,-50.0,-55.0,-10.0,18.066,-0.549,8.666,0.0,0.0,0
599,26.899,100696.0,0.085,0.004,-0.883,-50.0,-55.0,-10.0,-25.207,2.319,-23.071,0.0,0.0,0
600,26.899,100694.0,0.102,0.034,-0.959,-50.0,-55.0,-10.0,-14.16,6.774,-3.845,0.0,0.0,0
601,26.899,100697.0,0.111,-0.038,-0.963,-50.0,-55.0,-10.0,-12.756,5.798,1.159,0.0,0.0,0
602,26.899,100699.0,0.08,-0.048,-1.031,-50.0,-55.0,-10.0,-17.639,0.915,13.488,0.0,0.0,0
603,26.899,100697.0,0.163,-0.059,-1.101,-50.0,-55.0,-10.0,29.357,-7.019,46.081,0.0,0.0,0
604,27.0,100701.0,0.059,0.027,-0.982,-50.0,-55.0,-10.0,-13.854,-18.798,-4.333,0.0,0.0,0
605,26.899,100699.0,0.037,-0.03,-0.978,-50.0,-55.0,-10.0,21.301,-5.493,35.766,0.0,0.0,0
606,27.0,100694.0,0.032,0.075,-0.947,-50.0,-55.0,-10.0,-1.953,9.704,18.127,0.0,0.0,0
607,27.0,100694.0,0.015,0.026,-0.95,-50.0,-55.0,-10.0,-16.723,-3.906,15.136,0.0,0.0,0
608,26.899,100698.0,0.075,0.015,-0.89,-50.0,-55.0,-10.0,-12.817,-9.094,3.784,0.0,0.0,0
609,27.0,100689.0,0.086,-0.019,-0.951,-50.0,-55.0,-10.0,-17.456,2.197,-21.179,0.0,0.0,0
610,27.0,100691.0,0.072,0.02,-1.105,-50.0,-55.0,-10.0,-15.563,3.723,-4.76,0.0,0.0,0
611,26.899,100702.0,0.146,-0.08,-1.0,-50.0,-55.0,-10.0,19.104,0.0,-7.019,0.0,0.0,0
612,27.0,100691.0,0.078,0.027,-1.061,-50.0,-55.0,-10.0,-13.0,-7.202,-3.417,0.0,0.0,0
613,27.0,100700.0,0.123,0.044,-1.007,-50.0,-55.0,-10.0,20.69,6.103,11.596,0.0,0.0,0
614,27.0,100699.0,0.107,0.055,-0.882,-50.0,-55.0,-10.0,-11.047,0.976,-8.483,0.0,0.0,0
615,27.0,100697.0,0.118,0.002,-0.946,-50.0,-55.0,-10.0,-25.451,2.746,0.061,0.0,0.0,0
616,27.0,100696.0,0.109,-0.009,-0.959,-50.0,-55.0,-10.0,-6.896,4.15,-9.094,0.0,0.0,0
617,27.0,100696.0,0.084,0.013,-1.028,-50.0,-55.0,-10.0,-16.723,-23.315,21.057,0.0,0.0,0
618,27.0,100696.0,0.128,-0.071,-0.94,-50.0,-55.0,-10.0,-9.887,-5.493,-5.615,0.0,0.0,0
619,27.0,100694.0,0.116,0.073,-1.133,-50.0,-55.0,-10.0,23.315,23.925,53.71,0.0,0.0,0
620,27.0,100692.0,0.056,-0.033,-0.998,-50.0,-55.0,-10.0,-20.69,-27.16,-4.028,0.0,0.0,0
621,27.0,100691.0,0.055,0.048,-0.995,-50.0,-55.0,-10.0,20.385,17.15,39.855,0.0,0.0,0
622,27.0,100701.0,0.034,0.005,-0.942,-50.0,-55.0,-10.0,-16.967,-18.859,3.845,0.0,0.0,0
623,27.0,100696.0,0.033,-0.003,-0.903,-50.0,-55.0,-10.0,-19.714,-3.173,11.474,0.0,0.0,0
624,27.0,100694.0,0.092,0.008,-0.87,-50.0,-55.0,-10.0,7.69,5.31,-4.089,0.0,0.0,0
625,27.0,100688.0,0.075,-0.027,-0.991,-50.0,-55.0,-10.0,-6.835,-3.479,-26.611,0.0,0.0,0
626,27.0,100692.0,0.088,0.043,-1.064,-50.0,-55.0,-10.0,-6.042,-14.953,0.183,0.0,0.0,0
627,27.0,100697.0,0.144,-0.07,-1.097,-50.0,-55.0,-10.0,-2.014,16.479,-15.38,0.0,0.0,0
628,27.0,100692.0,0.117,-0.03,-1.002,-50.0,-55.0,-10.0,3.967,-6.225,6.469,0.0,0.0,0
629,27.0,100698.0,0.104,0.128,-0.952,-50.0,-55.0,-10.0,10.925,4.821,9.338,0.0,0.0,0
630,27.0,100697.0,0.097,0.031,-0.885,-50.0,-55.0,-10.0,-22.766,4.089,-12.268,0.0,0.0,0
631,27.0,100698.0,0.108,0.046,-0.945,-50.0,-55.0,-10.0,-13.0,7.385,4.638,0.0,0.0,0
632,27.0,100695.0,0.095,-0.005,-0.929,-50.0,-55.0,-10.0,-21.728,-7.141,3.784,0.0,0.0,0
633,27.0,100702.0,0.098,0.013,-1.068,-50.0,-55.0,-10.0,-13.244,-6.103,20.751,0.0,0.0,0
634,27.0,100704.0,0.163,-0.031,-1.102,-50.0,-55.0,-10.0,11.169,-9.338,29.785,0.0,0.0,0
635,27.0,100702.0,-0.035,0.048,-1.057,-50.0,-55.0,-10.0,-18.493,-25.817,-13.0,0.0,0.0,0
636,27.0,100698.0,0.07,0.022,-1.011,-50.0,-55.0,-10.0,25.451,10.314,38.513,0.0,0.0,0
637,27.0,100698.0,0.012,0.068,-1.018,-50.0,-55.0,-10.0,4.943,-5.981,0.183,0.0,0.0,0
638,27.0,100701.0,0.042,0.017,-0.878,-50.0,-55.0,-10.0,-29.479,-6.286,-3.051,0.0,0.0,0
639,27.0,100701.0,0.077,0.007,-0.829,-50.0,-55.0,-10.0,-13.732,-5.859,-0.976,0.0,0.0,0
640,27.0,100698.0,0.089,-0.037,-0.947,-50.0,-55.0,-10.0,-9.155,2.563,-22.094,0.0,0.0,0
641,27.0,100693.0,0.084,-0.001,-1.055,-50.0,-55.0,-10.0,-8.544,-4.882,-4.211,0.0,0.0,0
642,27.0,100698.0,0.071,-0.127,-1.042,-50.0,-55.0,-10.0,-6.896,-15.38,-33.447,0.0,0.0,0
643,27.0,100697.0,0.137,-0.001,-1.08,-50.0,-55.0,-10.0,-7.019,27.648,13.732,0.0,0.0,0
644,27.0,100699.0,0.165,-0.015,-0.989,-50.0,-55.0,-10.0,5.554,1.342,7.568,0.0,0.0,0
645,27.0,100698.0,0.093,0.119,-1.022,-50.0,-55.0,-10.0,21.85,6.347,0.183,0.0,0.0,0
646,27.0,100694.0,0.105,0.009,-0.846,-50.0,-55.0,-10.0,-22.216,-7.995,-13.488,0.0,0.0,0
647,27.0,100702.0,0.088,-0.001,-0.913,-50.0,-55.0,-10.0,-1.037,4.028,-11.779,0.0,0.0,0
648,27.0,100698.0,0.06,0.0,-1.041,-50.0,-55.0,-10.0,-11.352,-5.737,-5.004,0.0,0.0,0
649,27.0,100692.0,0.114,0.017,-0.985,-50.0,-55.0,-10.0,-1.708,-4.76,1.464,0.0,0.0,0
650,27.0,100694.0,0.132,-0.095,-1.178,-50.0,-55.0,-10.0,0.488,21.728,20.812,0.0,0.0,0
651,27.0,100693.0,0.069,0.071,-1.015,-50.0,-55.0,-10.0,-12.634,-23.986,7.141,0.0,0.0,0
652,27.0,100694.0,0.062,0.018,-0.985,-50.0,-55.0,-10.0,9.521,20.935,26.794,0.0,0.0,0
653,27.0,100690.0,0.045,0.017,-0.952,-50.0,-55.0,-10.0,3.356,-12.39,6.774,0.0,0.0,0
654,27.0,100697.0,0.03,0.009,-0.847,-50.0,-55.0,-10.0,-13.671,-5.187,-2.624,0.0,0.0,0
655,27.0,100698.0,0.077,-0.012,-0.886,-50.0,-55.0,-10.0,-1.892,-3.173,-7.019,0.0,0.0,0
656,27.0,100708.0,0.094,-0.059,-1.035,-50.0,-55.0,-10.0,-13.366,1.037,-33.142,0.0,0.0,0
657,27.0,100696.0,0.127,0.005,-1.102,-50.0,-55.0,-10.0,-7.629,4.272,-4.943,0.0,0.0,0
658,27.0,100689.0,0.145,-0.007,-1.075,-50.0,-55.0,-10.0,-3.173,29.724,-13.244,0.0,0.0,0
659,27.0,100691.0,0.147,-0.062,-0.983,-50.0,-55.0,-10.0,-11.962,-22.583,-12.39,0.0,0.0,0
660,27.0,100691.0,0.136,0.079,-0.981,-50.0,-55.0,-10.0,34.362,3.967,6.652,0.0,0.0,0
661,27.0,100696.0,0.147,0.058,-0.816,-50.0,-55.0,-10.0,-22.216,-8.605,-32.958,0.0,0.0,0
662,27.0,100700.0,0.145,-0.028,-0.879,-50.0,-55.0,-10.0,-5.126,7.141,-18.493,0.0,0.0,0
663,27.0,100695.0,0.156,0.029,-0.935,-50.0,-55.0,-10.0,4.394,-5.004,-15.563,0.0,0.0,0
664,27.0,100693.0,0.152,0.001,-1.02,-50.0,-55.0,-10.0,-0.122,9.948,5.92,0.0,0.0,0
665,27.0,100701.0,0.102,-0.067,-1.163,-50.0,-55.0,-10.0,0.0,-6.347,3.173,0.0,0.0,0
666,27.0,100702.0,0.005,0.098,-1.033,-50.0,-55.0,-10.0,-10.742,-34.79,5.92,0.0,0.0,0
667,27.0,100698.0,0.079,0.098,-0.966,-50.0,-55.0,-10.0,17.395,16.174,22.644,0.0,0.0,0
668,27.0,100697.0,0.032,0.087,-1.002,-50.0,-55.0,-10.0,-0.976,-3.662,-17.883,0.0,0.0,0
669,27.0,100695.0,0.042,0.001,-0.89,-50.0,-55.0,-10.0,-19.47,-3.967,-10.681,0.0,0.0,0
670,27.0,100696.0,0.093,0.025,-0.922,-50.0,-55.0,-10.0,-3.356,-2.197,-12.207,0.0,0.0,0
671,27.0,100696.0,0.092,-0.026,-0.919,-50.0,-55.0,-10.0,-13.793,13.793,-38.818,0.0,0.0,0
672,27.0,100696.0,0.079,0.034,-1.085,-50.0,-55.0,-10.0,-9.094,2.563,-26.916,0.0,0.0,0
673,27.0,100701.0,0.121,-0.109,-1.012,-50.0,-55.0,-10.0,2.929,-17.15,-32.47,0.0,0.0,0
674,27.0,100699.0,0.057,0.103,-1.035,-50.0,-55.0,-10.0,-15.38,1.281,-12.39,0.0,0.0,0
675,27.0,100700.0,0.158,0.026,-1.02,-50.0,-55.0,-10.0,37.902,1.342,7.385,0.0,0.0,0
676,27.0,100701.0,0.138,0.158,-0.948,-50.0,-55.0,-10.0,-2.38,-0.671,-18.127,0.0,0.0,0
677,27.0,100706.0,0.146,0.067,-0.873,-50.0,-55.0,-10.0,-15.136,-4.882,-24.719,0.0,0.0,0
678,27.0,100703.0,0.112,0.09,-0.943,-50.0,-55.0,-10.0,-11.779,7.873,-20.996,0.0,0.0,0
679,27.0,100698.0,0.099,0.0,-1.003,-50.0,-55.0,-10.0,-13.427,-13.0,-7.202,0.0,0.0,0
680,27.0,100698.0,0.093,0.041,-1.002,-50.0,-55.0,-10.0,-4.76,0.732,-12.756,0.0,0.0,0
681,27.0,100695.0,0.134,-0.022,-1.114,-50.0,-55.0,-10.0,19.714,6.591,22.827,0.0,0.0,0
682,27.0,100696.0,0.018,0.082,-0.978,-50.0,-55.0,-10.0,-31.005,-19.104,-21.545,0.0,0.0,0
683,27.0,100697.0,0.097,0.034,-1.002,-50.0,-55.0,-10.0,20.629,13.732,26.855,0.0,0.0,0
684,27.0,100699.0,0.075,0.026,-0.918,-50.0,-55.0,-10.0,1.525,-6.103,-0.183,0.0,0.0,0
685,27.0,100706.0,0.034,0.052,-0.951,-50.0,-55.0,-10.0,-12.573,5.92,-3.051,0.0,0.0,0
686,27.0,100694.0,0.08,-0.024,-0.915,-50.0,-55.0,-10.0,-6.164,-6.774,-0.671,0.0,0.0,0
687,27.0,100694.0,0.088,0.0,-0.946,-50.0,-55.0,-10.0,-24.353,-4.272,-25.817,0.0,0.0,0
688,27.0,100696.0,0.064,0.057,-1.09,-50.0,-55.0,-10.0,-12.268,9.277,-4.028,0.0,0.0,0
689,27.0,100696.0,0.141,-0.099,-0.976,-50.0,-55.0,-10.0,2.441,-20.202,-34.118,0.0,0.0,0
690,27.0,100704.0,0.048,0.025,-1.058,-50.0,-55.0,-10.0,-11.352,10.864,-21.911,0.0,0.0,0
691,27.0,100700.0,0.135,0.007,-0.979,-50.0,-55.0,-10.0,18.859,8.789,6.652,0.0,0.0,0
692,27.0,100695.0,0.098,0.118,-0.913,-50.0,-55.0,-10.0,5.737,-12.756,-16.906,0.0,0.0,0
693,27.0,100703.0,0.127,0.028,-0.904,-50.0,-55.0,-10.0,-22.155,10.803,-17.211,0.0,0.0,0
694,27.0,100697.0,0.112,0.065,-0.931,-50.0,-55.0,-10.0,-7.08,-2.99,-12.878,0.0,0.0,0
695,27.0,100696.0,0.11,-0.011,-0.993,-50.0,-55.0,-10.0,-17.333,-5.92,-7.141,0.0,0.0,0
696,27.0,100700.0,0.046,0.035,-1.079,-50.0,-55.0,-10.0,-1.77,-0.305,-7.08,0.0,0.0,0
697,27.0,100704.0,0.111,0.049,-1.083,-50.0,-55.0,-10.0,31.616,1.953,13.61,0.0,0.0,0
698,27.0,100700.0,0.047,-0.006,-1.035,-50.0,-55.0,-10.0,-26.55,-23.071,-12.207,0.0,0.0,0
699,27.0,100700.0,0.038,0.096,-1.003,-50.0,-55.0,-10.0,22.46,8.3,11.901,0.0,0.0,0
700,27.0,100702.0,0.051,0.092,-0.964,-50.0,-55.0,-10.0,-13.427,10.253,-0.427,0.0,0.0,0
701,27.0,100701.0,0.078,-0.01,-0.856,-50.0,-55.0,-10.0,-14.465,-12.329,-18.554,0.0,0.0,0
702,27.0,100703.0,0.079,0.013,-0.887,-50.0,-55.0,-10.0,-9.46,12.573,-23.803,0.0,0.0,0
703,27.0,100703.0,0.094,-0.064,-0.972,-50.0,-55.0,-10.0,-20.08,8.3,-38.085,0.0,0.0,0
704,27.0,100700.0,0.044,0.051,-1.101,-50.0,-55.0,-10.0,-7.202,-12.145,-24.353,0.0,0.0,0
705,27.0,100700.0,0.157,-0.146,-1.013,-50.0,-55.0,-10.0,4.577,4.882,-35.095,0.0,0.0,0
706,27.0,100703.0,0.106,-0.001,-1.065,-50.0,-55.0,-10.0,1.953,-8.361,-21.728,0.0,0.0,0
707,27.1,100705.0,0.059,0.116,-1.033,-50.0,-55.0,-10.0,25.512,2.136,-12.145,0.0,0.0,0
708,27.0,100708.0,0.077,0.025,-0.844,-50.0,-55.0,-10.0,-24.353,-1.647,-37.109,0.0,0.0,0
709,27.1,100700.0,0.097,0.037,-0.9,-50.0,-55.0,-10.0,-4.272,-7.385,-13.732,0.0,0.0,0
710,27.1,100695.0,0.095,0.0,-0.893,-50.0,-55.0,-10.0,-7.629,6.896,-16.662,0.0,0.0,0
711,27.1,100700.0,0.059,0.09,-1.074,-50.0,-55.0,-10.0,-9.033,-4.15,12.145,0.0,0.0,0
712,27.1,100693.0,0.15,-0.108,-1.032,-50.0,-55.0,-10.0,1.77,-5.493,-7.507,0.0,0.0,0
713,27.0,100696.0,0.068,0.196,-1.13,-50.0,-55.0,-10.0,13.244,10.07,23.559,0.0,0.0,0
714,27.0,100700.0,0.067,-0.051,-0.964,-50.0,-55.0,-10.0,-19.348,-17.7,-20.08,0.0,0.0,0
715,27.1,100700.0,0.047,0.071,-0.979,-50.0,-55.0,-10.0,21.728,2.563,-5.249,0.0,0.0,0
716,27.1,100698.0,0.051,0.008,-0.904,-50.0,-55.0,-10.0,-22.888,2.746,-17.578,0.0,0.0,0
717,27.1,100697.0,0.052,-0.026,-0.868,-50.0,-55.0,-10.0,-3.784,-5.065,-18.798,0.0,0.0,0
718,27.1,100700.0,0.083,-0.06,-0.929,-50.0,-55.0,-10.0,-9.277,3.295,-18.676,0.0,0.0,0
719,27.1,100697.0,0.097,-0.108,-0.981,-50.0,-55.0,-10.0,-14.038,-9.582,-28.015,0.0,0.0,0
720,27.1,100702.0,0.048,0.01,-1.145,-50.0,-55.0,-10.0,-2.319,-6.835,-9.765,0.0,0.0,0
721,27.1,100701.0,0.09,-0.023,-1.077,-50.0,-55.0,-10.0,19.348,22.216,-5.371,0.0,0.0,0
722,27.1,100697.0,0.115,-0.07,-1.062,-50.0,-55.0,-10.0,-1.159,-5.859,-6.774,0.0,0.0,0
723,27.1,100704.0,0.105,0.056,-0.979,-50.0,-55.0,-10.0,-0.854,-0.793,-1.647,0.0,0.0,0
724,27.1,100701.0,0.078,0.025,-0.84,-50.0,-55.0,-10.0,-24.597,-8.3,-11.596,0.0,0.0,0
725,27.1,100700.0,0.077,0.063,-0.869,-50.0,-55.0,-10.0,-3.112,-3.601,9.643,0.0,0.0,0
726,27.1,100704.0,0.101,0.016,-0.921,-50.0,-55.0,-10.0,-18.127,-2.929,5.615,0.0,0.0,0
727,27.1,100700.0,0.105,0.06,-1.02,-50.0,-55.0,-10.0,-1.281,9.704,7.385,0.0,0.0,0
728,27.1,100698.0,0.085,-0.074,-1.245,-50.0,-55.0,-10.0,-1.342,9.765,24.902,0.0,0.0,0
729,27.1,100700.0,0.027,0.062,-0.993,-50.0,-55.0,-10.0,-8.544,-19.897,1.892,0.0,0.0,0
730,27.1,100700.0,0.026,0.0,-1.022,-50.0,-55.0,-10.0,2.319,6.774,18.554,0.0,0.0,0
731,27.1,100695.0,0.062,0.0,-0.922,-50.0,-55.0,-10.0,10.131,12.634,6.103,0.0,0.0,0
732,27.1,100703.0,0.059,-0.027,-0.836,-50.0,-55.0,-10.0,-21.301,-17.578,-5.981,0.0,0.0,0
733,27.1,100703.0,0.109,-0.086,-0.9,-50.0,-55.0,-10.0,-0.061,3.479,-2.258,0.0,0.0,0
734,27.1,100698.0,0.093,-0.049,-0.954,-50.0,-55.0,-10.0,-8.422,7.995,-22.399,0.0,0.0,0
735,27.1,100697.0,0.082,-0.007,-1.042,-50.0,-55.0,-10.0,-11.84,-3.356,-6.652,0.0,0.0,0
736,27.1,100698.0,0.122,-0.105,-1.073,-50.0,-55.0,-10.0,12.268,-17.944,-11.962,0.0,0.0,0
737,27.1,100700.0,0.082,-0.097,-1.045,-50.0,-55.0,-10.0,-22.521,-12.512,-13.854,0.0,0.0,0
738,27.1,100692.0,0.118,0.005,-0.975,-50.0,-55.0,-10.0,22.888,17.517,14.038,0.0,0.0,0
739,27.1,100693.0,0.093,0.034,-0.936,-50.0,-55.0,-10.0,-1.464,-1.892,-9.033,0.0,0.0,0
740,27.1,100690.0,0.056,-0.002,-0.898,-50.0,-55.0,-10.0,-23.925,-6.408,-10.925,0.0,0.0,0
741,27.1,100697.0,0.094,0.0,-0.902,-50.0,-55.0,-10.0,-7.995,0.488,0.122,0.0,0.0,0
742,27.1,100700.0,0.105,-0.007,-1.031,-50.0,-55.0,-10.0,-21.667,-9.033,18.676,0.0,0.0,0
743,27.1,100691.0,0.112,-0.038,-1.084,-50.0,-55.0,-10.0,8.422,-1.464,2.441,0.0,0.0,0
744,27.1,100694.0,0.059,0.042,-1.077,-50.0,-55.0,-10.0,-7.141,-8.361,24.353,0.0,0.0,0
745,27.1,100698.0,0.061,0.012,-1.004,-50.0,-55.0,-10.0,-11.108,-13.793,7.385,0.0,0.0,0
746,27.1,100698.0,0.06,0.02,-1.034,-50.0,-55.0,-10.0,15.991,13.61,3.112,0.0,0.0,0
747,27.1,100700.0,0.067,0.01,-0.878,-50.0,-55.0,-10.0,-19.226,-12.023,-1.953,0.0,0.0,0
748,27.1,100697.0,0.128,-0.081,-0.78,-50.0,-55.0,-10.0,-15.686,-6.469,-7.629,0.0,0.0,0
749,27.1,100697.0,0.109,-0.054,-0.966,-50.0,-55.0,-10.0,1.647,14.709,-14.587,0.0,0.0,0
750,27.1,100690.0,0.063,-0.135,-1.007,-50.0,-55.0,-10.0,-22.094,-16.967,-31.005,0.0,0.0,0
751,27.1,100690.0,0.074,-0.043,-1.115,-50.0,-55.0,-10.0,-5.004,-8.605,-2.136,0.0,0.0,0
752,27.1,100699.0,0.182,-0.084,-1.032,-50.0,-55.0,-10.0,13.061,18.066,0.183,0.0,0.0,0
753,27.1,100697.0,0.227,-0.149,-0.914,-50.0,-55.0,-10.0,-8.056,-1.037,-14.038,0.0,0.0,0
754,27.1,100699.0,0.116,0.081,-0.974,-50.0,-55.0,-10.0,24.719,7.995,3.234,0.0,0.0,0
755,27.1,100697.0,0.097,0.017,-0.913,-50.0,-55.0,-10.0,-8.972,-0.793,-19.592,0.0,0.0,0
756,27.1,100691.0,0.119,-0.004,-0.927,-50.0,-55.0,-10.0,-15.808,-1.708,-5.493,0.0,0.0,0
757,27.1,100693.0,0.104,-0.006,-0.962,-50.0,-55.0,-10.0,-20.263,4.577,-1.342,0.0,0.0,0
758,27.1,100695.0,0.11,0.053,-1.055,-50.0,-55.0,-10.0,-3.234,-9.338,19.287,0.0,0.0,0
759,27.1,100693.0,0.156,-0.073,-1.077,-50.0,-55.0,-10.0,6.347,-0.61,17.333,0.0,0.0,0
760,27.1,100696.0,0.146,0.086,-1.024,-50.0,-55.0,-10.0,2.807,4.211,10.498,0.0,0.0,0
761,27.1,100698.0,0.09,0.137,-1.056,-50.0,-55.0,-10.0,12.817,11.657,-0.061,0.0,0.0,0
762,27.1,100705.0,0.029,-0.049,-0.972,-50.0,-55.0,-10.0,4.028,-0.305,-17.089,0.0,0.0,0
763,27.1,100708.0,0.057,-0.087,-0.824,-50.0,-55.0,-10.0,-12.756,-23.986,-4.76,0.0,0.0,0
764,27.1,100706.0,0.062,-0.012,-0.844,-50.0,-55.0,-10.0,-0.61,18.249,-7.019,0.0,0.0,0
765,27.1,100704.0,0.075,-0.157,-0.96,-50.0,-55.0,-10.0,-18.981,-4.699,-16.906,0.0,0.0,0
766,27.1,100696.0,0.077,-0.1,-1.025,-50.0,-55.0,-10.0,-12.145,-15.38,-1.342,0.0,0.0,0
767,27.1,100697.0,0.15,-0.056,-1.078,-50.0,-55.0,-10.0,-2.441,-3.417,-17.517,0.0,0.0,0
768,27.1,100699.0,0.159,-0.078,-1.055,-50.0,-55.0,-10.0,-9.46,-3.723,-9.155,0.0,0.0,0
769,27.1,100697.0,0.112,0.04,-1.044,-50.0,-55.0,-10.0,28.747,16.845,6.896,0.0,0.0,0
770,27.1,100699.0,0.071,0.046,-0.888,-50.0,-55.0,-10.0,-0.671,1.159,-16.845,0.0,0.0,0
771,27.1,100696.0,0.047,0.038,-0.905,-50.0,-55.0,-10.0,-20.996,8.85,-17.333,0.0,0.0,0
772,27.1,100695.0,0.106,0.046,-0.87,-50.0,-55.0,-10.0,-4.455,7.141,-5.493,0.0,0.0,0
773,27.1,100694.0,0.132,-0.007,-1.006,-50.0,-55.0,-10.0,-19.47,-0.915,9.155,0.0,0.0,0
774,27.1,100698.0,0.105,-0.019,-1.112,-50.0,-55.0,-10.0,4.028,4.577,7.69,0.0,0.0,0
775,27.1,100704.0,0.119,0.105,-1.096,-50.0,-55.0,-10.0,-1.77,-7.751,28.015,0.0,0.0,0
776,27.1,100692.0,0.095,-0.017,-0.999,-50.0,-55.0,-10.0,1.586,-0.915,-12.39,0.0,0.0,0
777,27.1,100699.0,0.034,0.017,-0.937,-50.0,-55.0,-10.0,22.705,6.103,-13.183,0.0,0.0,0
778,27.1,100699.0,0.004,-0.059,-0.915,-50.0,-55.0,-10.0,-12.634,-6.774,-8.728,0.0,0.0,0
779,27.1,100702.0,0.049,-0.072,-0.875,-50.0,-55.0,-10.0,-8.239,2.746,-2.014,0.0,0.0,0
780,27.1,100701.0,0.018,-0.017,-0.932,-50.0,-55.0,-10.0,-14.709,5.554,-6.713,0.0,0.0,0
781,27.1,100699.0,0.055,-0.129,-0.983,-50.0,-55.0,-10.0,-20.324,-1.342,-9.704,0.0,0.0,0
782,27.1,100701.0,-0.007,-0.039,-1.165,-50.0,-55.0,-10.0,-2.746,2.258,13.305,0.0,0.0,0
783,27.1,100706.0,0.098,0.072,-1.083,-50.0,-55.0,-10.0,-4.699,16.418,15.869,0.0,0.0,0
784,27.1,100704.0,0.086,-0.073,-1.024,-50.0,-55.0,-10.0,4.577,6.958,6.958,0.0,0.0,0
785,27.1,100699.0,0.004,0.095,-0.996,-50.0,-55.0,-10.0,6.958,5.981,6.652,0.0,0.0,0
786,27.1,100697.0,0.011,-0.054,-0.914,-50.0,-55.0,-10.0,-26.916,9.643,8.911,0.0,0.0,0
787,27.1,100694.0,0.032,0.058,-0.874,-50.0,-55.0,-10.0,-14.038,-1.708,28.808,0.0,0.0,0
788,27.1,100690.0,0.127,-0.01,-0.913,-50.0,-55.0,-10.0,-19.042,-1.77,24.963,0.0,0.0,0
789,27.1,100695.0,0.075,-0.092,-0.983,-50.0,-55.0,-10.0,-14.282,0.366,22.033,0.0,0.0,0
790,27.1,100694.0,0.049,-0.122,-1.132,-50.0,-55.0,-10.0,20.568,-8.178,48.706,0.0,0.0,0
791,27.1,100694.0,-0.006,0.099,-1.073,-50.0,-55.0,-10.0,-14.526,3.967,8.056,0.0,0.0,0
792,27.1,100698.0,0.052,-0.014,-1.03,-50.0,-55.0,-10.0,19.836,6.958,19.287,0.0,0.0,0
793,27.1,100696.0,0.047,-0.012,-0.91,-50.0,-55.0,-10.0,12.756,-5.798,-12.634,0.0,0.0,0
794,27.1,100690.0,0.029,-0.074,-0.958,-50.0,-55.0,-10.0,-18.92,-11.108,-12.573,0.0,0.0,0
795,27.1,100690.0,0.086,-0.061,-0.846,-50.0,-55.0,-10.0,-3.112,2.929,4.699,0.0,0.0,0
796,27.1,100693.0,0.122,-0.062,-0.913,-50.0,-55.0,-10.0,-6.896,4.882,-14.343,0.0,0.0,0
797,27.1,100689.0,0.045,-0.13,-1.069,-50.0,-55.0,-10.0,-20.202,-2.502,-18.92,0.0,0.0,0
798,27.1,100695.0,0.065,-0.132,-1.078,-50.0,-55.0,-10.0,-2.502,-14.16,-3.967,0.0,0.0,0
799,27.1,100705.0,0.049,0.028,-1.119,-50.0,-55.0,-10.0,2.99,8.544,5.92,0.0,0.0,0
800,27.1,100695.0,0.121,-0.074,-0.917,-50.0,-55.0,-10.0,-2.136,-7.141,-6.713,0.0,0.0,0
801,27.2,100696.0,0.082,0.048,-0.973,-50.0,-55.0,-10.0,13.061,7.08,-9.033,0.0,0.0,0
802,27.2,100695.0,0.068,0.029,-0.902,-50.0,-55.0,-10.0,-16.296,5.249,-12.817,0.0,0.0,0
803,27.2,100702.0,0.057,0.013,-0.943,-50.0,-55.0,-10.0,-9.887,-6.774,-6.469,0.0,0.0,0
804,27.2,100700.0,0.098,0.045,-1.013,-50.0,-55.0,-10.0,-11.657,13.488,2.685,0.0,0.0,0
805,27.2,100698.0,0.062,0.013,-0.983,-50.0,-55.0,-10.0,-6.347,-19.47,14.709,0.0,0.0,0
806,27.2,100703.0,0.148,-0.084,-1.111,-50.0,-55.0,-10.0,19.165,2.807,32.897,0.0,0.0,0
807,27.2,100692.0,-0.022,0.027,-0.987,-50.0,-55.0,-10.0,-12.207,-25.268,-22.766,0.0,0.0,0
808,27.2,100692.0,0.027,0.026,-1.001,-50.0,-55.0,-10.0,25.024,13.427,2.441,0.0,0.0,0
809,27.2,100697.0,0.002,-0.011,-0.979,-50.0,-55.0,-10.0,-15.869,10.559,-6.225,0.0,0.0,0
810,27.2,100702.0,0.056,-0.074,-0.9,-50.0,-55.0,-10.0,-5.737,-4.76,-9.704,0.0,0.0,0
811,27.2,100700.0,0.059,0.006,-0.918,-50.0,-55.0,-10.0,-11.535,2.075,-10.925,0.0,0.0,0
812,27.2,100707.0,0.06,-0.083,-1.024,-50.0,-55.0,-10.0,-16.967,2.197,-23.803,0.0,0.0,0
813,27.2,100702.0,0.059,-0.083,-1.06,-50.0,-55.0,-10.0,-18.615,-25.573,-3.112,0.0,0.0,0
814,27.2,100697.0,0.07,-0.114,-1.052,-50.0,-55.0,-10.0,1.464,-15.075,-7.019,0.0,0.0,0
815,27.2,100697.0,0.078,-0.064,-0.983,-50.0,-55.0,-10.0,-18.005,-26.733,-4.089,0.0,0.0,0
816,27.2,100696.0,0.101,0.107,-0.969,-50.0,-55.0,-10.0,24.658,40.161,4.455,0.0,0.0,0
817,27.2,100700.0,0.081,0.008,-0.89,-50.0,-55.0,-10.0,-12.451,-3.601,-8.85,0.0,0.0,0
818,27.2,100700.0,0.084,-0.046,-0.929,-50.0,-55.0,-10.0,-7.812,10.314,-4.943,0.0,0.0,0
819,27.2,100697.0,0.084,0.009,-0.942,-50.0,-55.0,-10.0,-13.854,-3.723,8.483,0.0,0.0,0
820,27.2,100691.0,0.065,0.012,-1.041,-50.0,-55.0,-10.0,-5.737,-14.343,20.141,0.0,0.0,0
821,27.2,100699.0,0.097,-0.062,-1.066,-50.0,-55.0,-10.0,-6.591,-7.69,15.075,0.0,0.0,0
822,27.2,100697.0,0.069,0.024,-1.117,-50.0,-55.0,-10.0,5.432,-9.216,34.423,0.0,0.0,0
823,27.2,100693.0,0.111,-0.043,-0.988,-50.0,-55.0,-10.0,-3.051,2.258,17.211,0.0,0.0,0
824,27.2,100688.0,0.058,-0.031,-0.926,-50.0,-55.0,-10.0,14.038,7.812,-1.037,0.0,0.0,0
825,27.2,100697.0,0.027,-0.03,-0.928,-50.0,-55.0,-10.0,-17.456,-2.319,1.953,0.0,0.0,0
826,27.2,100702.0,0.062,-0.095,-0.916,-50.0,-55.0,-10.0,-18.005,-1.037,-1.647,0.0,0.0,0
827,27.2,100693.0,0.081,-0.02,-0.96,-50.0,-55.0,-10.0,-9.399,3.967,-1.464,0.0,0.0,0
828,27.2,100691.0,0.01,-0.096,-1.095,-50.0,-55.0,-10.0,-21.24,-13.916,-15.563,0.0,0.0,0
829,27.2,100697.0,0.033,-0.105,-1.08,-50.0,-55.0,-10.0,1.22,-8.972,-2.197,0.0,0.0,0
830,27.2,100693.0,0.045,0.041,-1.022,-50.0,-55.0,-10.0,-11.352,5.126,13.549,0.0,0.0,0
831,27.2,100697.0,0.149,-0.071,-0.982,-50.0,-55.0,-10.0,8.911,13.732,21.545,0.0,0.0,0
832,27.2,100694.0,0.087,0.018,-0.974,-50.0,-55.0,-10.0,-0.671,-2.319,1.159,0.0,0.0,0
833,27.2,100690.0,0.093,-0.019,-0.844,-50.0,-55.0,-10.0,-31.616,-0.183,2.929,0.0,0.0,0
834,27.2,100694.0,0.105,-0.041,-0.918,-50.0,-55.0,-10.0,-13.549,-4.943,13.977,0.0,0.0,0
835,27.2,100689.0,0.094,-0.053,-0.965,-50.0,-55.0,-10.0,-19.531,-4.272,15.747,0.0,0.0,0
836,27.2,100692.0,0.066,-0.037,-1.032,-50.0,-55.0,-10.0,2.319,8.789,21.24,0.0,0.0,0
837,27.2,100696.0,0.084,-0.034,-1.161,-50.0,-55.0,-10.0,7.629,4.15,46.691,0.0,0.0,0
838,27.2,100698.0,0.111,-0.141,-0.929,-50.0,-55.0,-10.0,1.708,-12.817,17.15,0.0,0.0,0
839,27.2,100690.0,0.034,0.055,-1.014,-50.0,-55.0,-10.0,18.615,4.15,25.329,0.0,0.0,0
840,27.2,100692.0,0.04,-0.071,-0.939,-50.0,-55.0,-10.0,-19.409,-6.103,7.446,0.0,0.0,0
841,27.2,100697.0,0.076,-0.112,-0.876,-50.0,-55.0,-10.0,-9.338,-6.469,12.207,0.0,0.0,0
842,27.2,100696.0,0.036,-0.09,-0.991,-50.0,-55.0,-10.0,-13.427,10.925,-2.502,0.0,0.0,0
843,27.2,100698.0,0.048,-0.158,-1.079,-50.0,-55.0,-10.0,-22.46,1.464,9.155,0.0,0.0,0
844,27.2,100701.0,0.044,-0.068,-1.008,-50.0,-55.0,-10.0,-12.939,-19.714,-3.906,0.0,0.0,0
845,27.2,100704.0,0.081,-0.119,-1.116,-50.0,-55.0,-10.0,-0.793,2.502,32.104,0.0,0.0,0
846,27.2,100701.0,0.154,-0.017,-0.916,-50.0,-55.0,-10.0,17.517,12.084,25.024,0.0,0.0,0
847,27.2,100699.0,0.066,0.04,-0.945,-50.0,-55.0,-10.0,17.272,6.347,10.07,0.0,0.0,0
848,27.2,100698.0,0.077,-0.078,-0.877,-50.0,-55.0,-10.0,-23.193,1.586,5.187,0.0,0.0,0
849,27.2,100694.0,0.132,0.038,-0.906,-50.0,-55.0,-10.0,-3.845,5.31,32.714,0.0,0.0,0
850,27.2,100690.0,0.176,-0.037,-0.966,-50.0,-55.0,-10.0,-10.253,6.347,28.259,0.0,0.0,0
851,27.2,100693.0,0.13,0.031,-1.019,-50.0,-55.0,-10.0,-2.258,-1.892,15.991,0.0,0.0,0
852,27.2,100699.0,0.055,-0.095,-1.181,-50.0,-55.0,-10.0,8.911,10.07,37.841,0.0,0.0,0
853,27.2,100701.0,0.082,0.005,-0.969,-50.0,-55.0,-10.0,-16.845,-36.193,29.785,0.0,0.0,0
854,27.2,100702.0,0.097,0.004,-0.994,-50.0,-55.0,-10.0,10.681,26.672,44.982,0.0,0.0,0
855,27.2,100699.0,0.027,-0.01,-1.014,-50.0,-55.0,-10.0,3.051,0.0,6.835,0.0,0.0,0
856,27.2,100694.0,0.005,-0.081,-0.93,-50.0,-55.0,-10.0,-22.827,-17.822,11.718,0.0,0.0,0
857,27.2,100696.0,0.093,-0.036,-0.838,-50.0,-55.0,-10.0,-12.084,5.615,24.902,0.0,0.0,0
858,27.2,100697.0,0.109,-0.114,-0.953,-50.0,-55.0,-10.0,-13.244,1.708,5.065,0.0,0.0,0
859,27.2,100691.0,0.012,-0.09,-1.121,-50.0,-55.0,-10.0,-10.559,13.977,9.094,0.0,0.0,0
860,27.2,100695.0,0.021,-0.139,-1.095,-50.0,-55.0,-10.0,-17.395,-12.756,20.751,0.0,0.0,0
861,27.2,100697.0,0.048,0.05,-0.999,-50.0,-55.0,-10.0,-1.281,-0.671,29.541,0.0,0.0,0
862,27.2,100700.0,0.082,-0.011,-0.999,-50.0,-55.0,-10.0,20.996,26.123,37.536,0.0,0.0,0
863,27.2,100699.0,0.088,0.052,-0.907,-50.0,-55.0,-10.0,-3.173,-9.094,8.422,0.0,0.0,0
864,27.2,100692.0,0.098,-0.029,-0.951,-50.0,-55.0,-10.0,-18.676,10.009,22.644,0.0,0.0,0
865,27.2,100694.0,0.14,0.028,-0.915,-50.0,-55.0,-10.0,-11.291,2.075,23.376,0.0,0.0,0
866,27.2,100699.0,0.074,0.08,-1.032,-50.0,-55.0,-10.0,-9.521,2.99,20.141,0.0,0.0,0
867,27.2,100696.0,0.079,-0.092,-1.037,-50.0,-55.0,-10.0,-5.187,-7.263,18.554,0.0,0.0,0
868,27.2,100696.0,-0.002,0.01,-1.12,-50.0,-55.0,-10.0,10.681,-11.779,44.494,0.0,0.0,0
869,27.2,100701.0,-0.073,0.024,-1.009,-50.0,-55.0,-10.0,-26.184,-41.503,6.164,0.0,0.0,0
870,27.2,100698.0,-0.012,0.06,-0.942,-50.0,-55.0,-10.0,18.798,21.118,18.92,0.0,0.0,0
871,27.2,100697.0,0.004,-0.047,-0.93,-50.0,-55.0,-10.0,-14.16,3.845,15.319,0.0,0.0,0
872,27.2,100693.0,0.053,-0.11,-0.91,-50.0,-55.0,-10.0,-13.488,-6.225,13.793,0.0,0.0,0
873,27.2,100695.0,0.094,-0.104,-0.971,-50.0,-55.0,-10.0,-12.817,-4.028,3.906,0.0,0.0,0
874,27.2,100693.0,0.043,-0.125,-1.037,-50.0,-55.0,-10.0,-21.545,-1.098,-10.314,0.0,0.0,0
875,27.2,100690.0,-0.051,-0.053,-1.053,-50.0,-55.0,-10.0,-21.545,-15.319,7.934,0.0,0.0,0
876,27.2,100694.0,0.006,-0.139,-1.071,-50.0,-55.0,-10.0,-4.577,-7.568,36.376,0.0,0.0,0
877,27.2,100698.0,0.081,0.13,-0.986,-50.0,-55.0,-10.0,5.432,19.47,46.386,0.0,0.0,0
878,27.2,100697.0,0.019,-0.073,-1.068,-50.0,-55.0,-10.0,8.85,2.624,13.671,0.0,0.0,0
879,27.2,100694.0,0.033,-0.065,-0.828,-50.0,-55.0,-10.0,-38.208,-7.812,31.066,0.0,0.0,0
880,27.2,100693.0,0.111,0.025,-0.891,-50.0,-55.0,-10.0,-9.704,20.324,50.537,0.0,0.0,0
881,27.2,100693.0,0.133,-0.055,-0.941,-50.0,-55.0,-10.0,-23.437,9.704,41.259,0.0,0.0,0
882,27.2,100698.0,0.131,-0.05,-1.041,-50.0,-55.0,-10.0,2.441,-2.319,46.264,0.0,0.0,0
883,27.299,100701.0,0.107,-0.083,-1.129,-50.0,-55.0,-10.0,-8.178,29.846,58.105,0.0,0.0,0
884,27.299,100697.0,0.01,0.034,-1.1,-50.0,-55.0,-10.0,-2.99,-16.906,35.339,0.0,0.0,0
885,27.2,100701.0,0.063,-0.052,-0.957,-50.0,-55.0,-10.0,7.873,20.202,52.795,0.0,0.0,0
886,27.299,100699.0,0.045,-0.072,-0.99,-50.0,-55.0,-10.0,-6.347,-5.737,9.887,0.0,0.0,0
887,27.299,100701.0,0.032,-0.079,-0.867,-50.0,-55.0,-10.0,-23.742,-16.418,21.301,0.0,0.0,0
888,27.299,100694.0,0.11,-0.117,-0.873,-50.0,-55.0,-10.0,-6.896,0.244,28.869,0.0,0.0,0
889,27.299,100695.0,0.091,-0.134,-0.967,-50.0,-55.0,-10.0,-15.258,-4.089,8.117,0.0,0.0,0
890,27.299,100695.0,0.094,-0.112,-1.001,-50.0,-55.0,-10.0,-21.606,-3.479,14.892,0.0,0.0,0
891,27.299,100698.0,0.065,-0.196,-1.097,-50.0,-55.0,-10.0,6.042,3.051,10.192,0.0,0.0,0
892,27.299,100694.0,0.081,-0.109,-1.011,-50.0,-55.0,-10.0,-19.836,-36.804,27.709,0.0,0.0,0
893,27.299,100695.0,0.058,-0.024,-1.003,-50.0,-55.0,-10.0,22.644,37.414,42.907,0.0,0.0,0
894,27.299,100701.0,0.007,-0.026,-1.021,-50.0,-55.0,-10.0,-0.366,4.699,30.822,0.0,0.0,0
895,27.299,100705.0,0.049,-0.05,-0.905,-50.0,-55.0,-10.0,-32.592,-4.394,19.348,0.0,0.0,0
896,27.299,100700.0,0.128,-0.035,-0.906,-50.0,-55.0,-10.0,-14.892,-6.164,40.222,0.0,0.0,0
897,27.299,100702.0,0.051,-0.003,-0.909,-50.0,-55.0,-10.0,-16.235,7.263,28.32,0.0,0.0,0
898,27.299,100698.0,0.03,-0.086,-1.031,-50.0,-55.0,-10.0,9.948,4.028,40.527,0.0,0.0,0
899,27.299,100695.0,-0.001,-0.077,-1.104,-50.0,-55.0,-10.0,-10.62,-20.019,42.48,0.0,0.0,0
900,27.299,100699.0,0.134,-0.07,-0.93,-50.0,-55.0,-10.0,35.095,36.682,28.686,0.0,0.0,0
901,27.299,100701.0,-0.02,-0.055,-1.06,-50.0,-55.0,-10.0,-3.845,-8.239,23.986,0.0,0.0,0
902,27.299,100707.0,0.025,-0.009,-0.955,-50.0,-55.0,-10.0,-11.901,-14.465,18.371,0.0,0.0,0
903,27.299,100709.0,0.066,-0.1,-0.922,-50.0,-55.0,-10.0,-15.93,8.911,15.075,0.0,0.0,0
904,27.299,100705.0,0.051,-0.098,-1.041,-50.0,-55.0,-10.0,-21.179,-10.742,15.502,0.0,0.0,0
905,27.299,100699.0,0.015,-0.075,-1.01,-50.0,-55.0,-10.0,-20.385,-3.295,18.066,0.0,0.0,0
906,27.299,100699.0,0.036,-0.069,-1.059,-50.0,-55.0,-10.0,-18.554,-16.052,4.516,0.0,0.0,0
907,27.299,100697.0,0.049,-0.013,-1.061,-50.0,-55.0,-10.0,-9.643,3.784,29.174,0.0,0.0,0
908,27.299,100702.0,0.086,-0.09,-1.02,-50.0,-55.0,-10.0,6.713,-13.061,18.493,0.0,0.0,0
909,27.299,100700.0,0.059,0.053,-0.932,-50.0,-55.0,-10.0,4.943,3.417,13.244,0.0,0.0,0
910,27.299,100697.0,0.006,-0.072,-0.957,-50.0,-55.0,-10.0,-22.033,3.845,2.014,0.0,0.0,0
911,27.299,100691.0,0.039,-0.015,-0.897,-50.0,-55.0,-10.0,-16.418,14.587,30.334,0.0,0.0,0
912,27.299,100696.0,0.099,-0.036,-0.887,-50.0,-55.0,-10.0,-22.888,13.244,35.766,0.0,0.0,0
913,27.299,100693.0,0.025,-0.125,-1.015,-50.0,-55.0,-10.0,-2.99,-2.319,52.307,0.0,0.0,0
914,27.299,100702.0,0.046,-0.036,-0.943,-50.0,-55.0,-10.0,-10.803,6.53,57.495,0.0,0.0,0
915,27.299,100696.0,0.055,-0.164,-1.186,-50.0,-55.0,-10.0,27.526,-3.784,85.998,0.0,0.0,0
916,27.299,100704.0,0.065,-0.039,-0.928,-50.0,-55.0,-10.0,13.854,-1.525,53.283,0.0,0.0,0
917,27.299,100704.0,-0.055,-0.034,-1.068,-50.0,-55.0,-10.0,12.573,4.333,45.166,0.0,0.0,0
918,27.299,100705.0,0.006,0.035,-0.951,-50.0,-55.0,-10.0,-1.953,4.15,31.066,0.0,0.0,0
919,27.299,100704.0,0.047,-0.086,-1.008,-50.0,-55.0,-10.0,-6.225,8.728,24.108,0.0,0.0,0
920,27.299,100699.0,0.047,0.036,-0.977,-50.0,-55.0,-10.0,-11.23,0.976,30.029,0.0,0.0,0
921,27.299,100699.0,0.057,0.006,-0.938,-50.0,-55.0,-10.0,-5.737,-14.77,14.892,0.0,0.0,0
922,27.399,100696.0,-0.021,0.122,-0.927,-50.0,-55.0,-10.0,3.356,17.944,-8.666,0.0,0.0,0
923,27.299,100699.0,-0.019,-0.082,-0.998,-50.0,-55.0,-10.0,-2.319,-2.868,-4.699,0.0,0.0,0
924,27.299,100703.0,0.053,0.0,-0.958,-50.0,-55.0,-10.0,2.868,8.605,-2.136,0.0,0.0,0
925,27.299,100701.0,0.028,0.02,-1.026,-50.0,-55.0,-10.0,-1.586,5.187,-3.54,0.0,0.0,0
926,27.299,100700.0,-0.022,0.082,-1.004,-50.0,-55.0,-10.0,-5.737,-3.845,-1.22,0.0,0.0,0
927,27.299,100698.0,-0.015,0.03,-0.962,-50.0,-55.0,-10.0,-12.207,-6.042,-8.3,0.0,0.0,0
928,27.299,100697.0,0.019,0.021,-0.966,-50.0,-55.0,-10.0,-14.404,-3.723,-4.943,0.0,0.0,0
929,27.299,100699.0,0.05,0.069,-0.932,-50.0,-55.0,-10.0,-6.713,-2.929,-9.338,0.0,0.0,0
930,27.299,100692.0,0.005,0.035,-0.967,-50.0,-55.0,-10.0,-6.591,-8.361,-8.239,0.0,0.0,0
931,27.299,100693.0,-0.017,0.0,-1.005,-50.0,-55.0,-10.0,-18.188,-4.272,0.244,0.0,0.0,0
932,27.399,100697.0,0.045,0.011,-0.927,-50.0,-55.0,-10.0,-14.282,-4.211,9.46,0.0,0.0,0
933,27.299,100698.0,0.072,0.005,-0.966,-50.0,-55.0,-10.0,-8.911,13.122,11.596,0.0,0.0,0
934,27.299,100697.0,0.085,0.049,-1.012,-50.0,-55.0,-10.0,-2.258,0.976,-6.225,0.0,0.0,0
935,27.399,100697.0,0.112,-0.027,-0.917,-50.0,-55.0,-10.0,14.465,-12.451,-20.812,0.0,0.0,0
936,27.299,100690.0,0.121,-0.104,-1.075,-50.0,-55.0,-10.0,12.207,7.507,-1.281,0.0,0.0,0
937,27.399,100696.0,0.156,0.033,-0.999,-50.0,-55.0,-10.0,14.282,-4.211,-1.708,0.0,0.0,0
938,27.399,100697.0,0.135,0.057,-1.092,-50.0,-55.0,-10.0,-10.864,3.845,3.234,0.0,0.0,0
939,27.399,100703.0,0.103,0.069,-1.079,-50.0,-55.0,-10.0,-6.286,-1.464,-9.216,0.0,0.0,0
940,27.399,100700.0,0.103,0.035,-1.043,-50.0,-55.0,-10.0,-9.826,-10.925,5.065,0.0,0.0,0
941,27.399,100697.0,0.11,0.003,-0.914,-50.0,-55.0,-10.0,-13.183,-15.747,-2.197,0.0,0.0,0
942,27.399,100692.0,0.084,0.037,-0.97,-50.0,-55.0,-10.0,-8.056,16.357,5.126,0.0,0.0,0
943,27.399,100688.0,0.101,0.022,-0.982,-50.0,-55.0,-10.0,-5.249,-0.549,17.456,0.0,0.0,0
944,27.399,100697.0,0.063,-0.017,-0.995,-50.0,-55.0,-10.0,-2.258,-12.756,4.577,0.0,0.0,0
945,27.399,100692.0,0.098,0.019,-0.888,-50.0,-55.0,-10.0,-5.859,16.418,18.188,0.0,0.0,0
946,27.399,100692.0,0.1,-0.01,-1.042,-50.0,-55.0,-10.0,-8.972,-12.817,8.361,0.0,0.0,0
947,27.399,100692.0,0.116,0.015,-1.01,-50.0,-55.0,-10.0,-2.929,3.601,6.164,0.0,0.0,0
948,27.399,100694.0,0.082,-0.069,-0.962,-50.0,-55.0,-10.0,-13.305,-4.638,-2.624,0.0,0.0,0
949,27.399,100695.0,0.099,0.005,-0.957,-50.0,-55.0,-10.0,-13.183,-4.943,0.061,0.0,0.0,0
950,27.399,100695.0,0.086,-0.019,-0.934,-50.0,-55.0,-10.0,-0.671,-4.699,-9.46,0.0,0.0,0
951,27.399,100699.0,0.072,-0.008,-1.029,-50.0,-55.0,-10.0,3.417,10.986,-0.427,0.0,0.0,0
952,27.399,100699.0,0.068,0.048,-0.952,-50.0,-55.0,-10.0,-6.896,-4.15,-8.911,0.0,0.0,0
953,27.399,100706.0,0.106,0.004,-0.984,-50.0,-55.0,-10.0,-2.746,-0.122,-2.441,0.0,0.0,0
954,27.399,100704.0,0.073,0.036,-1.014,-50.0,-55.0,-10.0,-6.958,3.234,-8.972,0.0,0.0,0
955,27.399,100695.0,0.076,0.021,-0.96,-50.0,-55.0,-10.0,-4.15,-11.474,-2.441,0.0,0.0,0
956,27.399,100694.0,0.103,0.006,-0.996,-50.0,-55.0,-10.0,-2.197,-5.126,5.615,0.0,0.0,0
957,27.399,100697.0,0.095,0.065,-0.979,-50.0,-55.0,-10.0,-2.99,-0.793,-1.525,0.0,0.0,0
958,27.399,100696.0,0.108,0.001,-0.989,-50.0,-55.0,-10.0,-4.333,-4.089,2.502,0.0,0.0,0
959,27.399,100697.0,0.09,0.045,-0.993,-50.0,-55.0,-10.0,-1.22,-0.732,4.089,0.0,0.0,0
960,27.399,100697.0,0.08,0.028,-0.979,-50.0,-55.0,-10.0,-5.92,-10.986,3.54,0.0,0.0,0
961,27.399,100700.0,0.102,0.009,-0.97,-50.0,-55.0,-10.0,-0.976,-1.098,2.807,0.0,0.0,0
962,27.399,100703.0,0.114,0.024,-0.973,-50.0,-55.0,-10.0,-4.699,-2.502,4.882,0.0,0.0,0
963,27.399,100706.0,0.124,0.024,-1.006,-50.0,-55.0,-10.0,-8.483,-3.234,4.15,0.0,0.0,0
964,27.399,100698.0,0.151,0.014,-0.965,-50.0,-55.0,-10.0,-3.051,1.098,2.38,0.0,0.0,0
965,27.399,100703.0,0.141,0.046,-0.972,-50.0,-55.0,-10.0,-5.981,-5.92,0.488,0.0,0.0,0
966,27.399,100704.0,0.144,0.028,-0.966,-50.0,-55.0,-10.0,-4.028,-2.929,-0.122,0.0,0.0,0
967,27.399,100707.0,0.126,0.017,-0.995,-50.0,-55.0,-10.0,-1.586,1.037,-2.99,0.0,0.0,0
968,27.399,100701.0,0.12,0.006,-0.996,-50.0,-55.0,-10.0,-5.676,-1.281,1.647,0.0,0.0,0
969,27.399,100702.0,0.124,0.052,-0.979,-50.0,-55.0,-10.0,-5.126,-2.685,-1.525,0.0,0.0,0
970,27.399,100695.0,0.127,0.038,-0.972,-50.0,-55.0,-10.0,-3.723,8.483,0.061,0.0,0.0,0
971,27.399,100695.0,0.119,0.025,-0.986,-50.0,-55.0,-10.0,-6.408,-5.004,-3.906,0.0,0.0,0
972,27.399,100695.0,0.113,0.034,-0.99,-50.0,-55.0,-10.0,-4.089,-1.403,-3.967,0.0,0.0,0
973,27.399,100701.0,0.13,0.009,-0.975,-50.0,-55.0,-10.0,-5.371,4.638,-6.408,0.0,0.0,0
974,27.399,100691.0,0.115,-0.006,-1.0,-50.0,-55.0,-10.0,-7.08,6.591,-5.249,0.0,0.0,0
975,27.399,100698.0,0.104,0.008,-0.992,-50.0,-55.0,-10.0,-5.92,-4.333,-0.183,0.0,0.0,0
976,27.399,100700.0,0.108,0.029,-0.969,-50.0,-55.0,-10.0,-6.53,-3.295,-2.807,0.0,0.0,0
977,27.399,100699.0,0.103,0.001,-0.957,-50.0,-55.0,-10.0,-5.981,0.61,-4.333,0.0,0.0,0
978,27.399,100692.0,0.094,0.031,-0.964,-50.0,-55.0,-10.0,-5.493,-8.911,-3.356,0.0,0.0,0
979,27.399,100695.0,0.125,-0.002,-0.95,-50.0,-55.0,-10.0,-1.831,1.953,-1.464,0.0,0.0,0
980,27.399,100696.0,0.118,0.029,-0.969,-50.0,-55.0,-10.0,-2.258,-0.488,-6.225,0.0,0.0,0
981,27.399,100697.0,0.095,0.036,-1.029,-50.0,-55.0,-10.0,-3.173,0.854,-4.455,0.0,0.0,0
982,27.399,100696.0,0.117,0.012,-0.974,-50.0,-55.0,-10.0,-7.446,-1.892,-6.347,0.0,0.0,0
983,27.399,100701.0,0.098,0.009,-1.008,-50.0,-55.0,-10.0,-4.211,-1.647,-1.342,0.0,0.0,0
984,27.399,100704.0,0.104,0.016,-0.986,-50.0,-55.0,-10.0,-7.263,-5.432,-4.333,0.0,0.0,0
985,27.399,100701.0,0.131,0.02,-0.944,-50.0,-55.0,-10.0,-4.455,4.455,-11.352,0.0,0.0,0
986,27.399,100693.0,0.136,0.022,-0.996,-50.0,-55.0,-10.0,-6.164,-2.624,-8.728,0.0,0.0,0
987,27.399,100701.0,0.127,0.031,-0.918,-50.0,-55.0,-10.0,-5.187,11.291,-16.418,0.0,0.0,0
988,27.399,100706.0,0.115,-0.001,-0.966,-50.0,-55.0,-10.0,-4.516,1.342,-13.061,0.0,0.0,0
989,27.399,100700.0,0.071,-0.003,-0.99,-50.0,-55.0,-10.0,-1.159,1.77,7.263,0.0,0.0,0
990,27.399,100697.0,0.083,0.004,-1.088,-50.0,-55.0,-10.0,0.122,-6.286,5.92,0.0,0.0,0
991,27.399,100696.0,0.096,-0.047,-0.954,-50.0,-55.0,-10.0,-3.784,-11.779,17.822,0.0,0.0,0
992,27.399,100697.0,0.093,0.091,-0.936,-50.0,-55.0,-10.0,-20.141,23.376,30.334,0.0,0.0,0
993,27.399,100703.0,0.098,0.038,-1.067,-50.0,-55.0,-10.0,-8.483,7.873,45.104,0.0,0.0,0
994,27.399,100699.0,0.071,-0.056,-1.012,-50.0,-55.0,-10.0,-19.47,-6.713,8.239,0.0,0.0,0
995,27.399,100701.0,0.044,-0.104,-0.99,-50.0,-55.0,-10.0,-0.976,-0.854,20.141,0.0,0.0,0
996,27.399,100702.0,0.082,0.001,-0.995,-50.0,-55.0,-10.0,-1.77,12.939,23.193,0.0,0.0,0
997,27.399,100701.0,0.075,-0.042,-0.994,-50.0,-55.0,-10.0,-15.319,-9.765,-0.183,0.0,0.0,0
998,27.399,100697.0,0.039,0.026,-1.013,-50.0,-55.0,-10.0,-10.498,8.056,-11.352,0.0,0.0,0
999,27.399,100702.0,0.019,-0.011,-0.958,-50.0,-55.0,-10.0,-6.835,-9.704,-7.995,0.0,0.0,0
1000,27.399,100701.0,0.086,-0.044,-0.877,-50.0,-55.0,-10.0,-7.873,-8.544,-15.747,0.0,0.0,0
1001,27.399,100693.0,0.075,0.053,-0.935,-50.0,-55.0,-10.0,8.911,2.685,-18.31,0.0,0.0,0
1002,27.399,100698.0,0.039,0.05,-1.012,-50.0,-55.0,-10.0,-7.934,4.638,-26.55,0.0,0.0,0
1003,27.399,100697.0,0.112,-0.041,-0.928,-50.0,-55.0,-10.0,-8.178,1.525,-27.832,0.0,0.0,0
1004,27.399,100690.0,0.118,0.018,-1.03,-50.0,-55.0,-10.0,8.666,3.601,-19.165,0.0,0.0,0
1005,27.399,100689.0,0.112,-0.012,-1.014,-50.0,-55.0,-10.0,-6.896,3.662,-24.536,0.0,0.0,0
1006,27.399,100699.0,0.114,0.0,-0.966,-50.0,-55.0,-10.0,-4.577,0.427,-9.521,0.0,0.0,0
1007,27.399,100697.0,0.123,0.053,-0.99,-50.0,-55.0,-10.0,-1.403,1.281,-7.629,0.0,0.0,0
1008,27.399,100699.0,0.11,0.019,-0.968,-50.0,-55.0,-10.0,-14.343,4.76,-7.751,0.0,0.0,0
1009,27.399,100701.0,0.052,-0.006,-1.007,-50.0,-55.0,-10.0,4.943,-12.451,2.075,0.0,0.0,0
1010,27.5,100701.0,0.086,-0.006,-0.977,-50.0,-55.0,-10.0,-8.483,15.197,26.062,0.0,0.0,0
1011,27.5,100702.0,0.058,-0.085,-1.004,-50.0,-55.0,-10.0,-2.746,-13.732,-11.047,0.0,0.0,0
1012,27.399,100705.0,-0.041,-0.005,-0.975,-50.0,-55.0,-10.0,5.004,5.981,-1.953,0.0,0.0,0
1013,27.399,100703.0,-0.04,-0.042,-1.028,-50.0,-55.0,-10.0,14.099,7.385,-3.234,0.0,0.0,0
1014,27.399,100701.0,0.028,-0.127,-0.99,-50.0,-55.0,-10.0,1.953,-7.446,20.507,0.0,0.0,0
1015,27.5,100704.0,0.01,-0.03,-1.002,-50.0,-55.0,-10.0,-10.681,-2.624,6.958,0.0,0.0,0
1016,27.5,100700.0,0.041,-0.074,-0.996,-50.0,-55.0,-10.0,-14.038,-8.544,9.704,0.0,0.0,0
1017,27.5,100697.0,0.061,0.087,-0.942,-50.0,-55.0,-10.0,-20.324,-13.61,17.333,0.0,0.0,0
1018,27.5,100704.0,0.142,0.0,-0.953,-50.0,-55.0,-10.0,-23.986,7.202,-1.281,0.0,0.0,0
1019,27.5,100703.0,0.066,-0.099,-0.957,-50.0,-55.0,-10.0,0.427,-4.577,-9.582,0.0,0.0,0
1020,27.5,100701.0,0.127,-0.142,-1.044,-50.0,-55.0,-10.0,-19.042,-9.277,16.113,0.0,0.0,0
1021,27.5,100701.0,0.081,-0.063,-1.028,-50.0,-55.0,-10.0,8.972,-10.986,-10.681,0.0,0.0,0
1022,27.5,100693.0,0.03,-0.094,-1.0,-50.0,-55.0,-10.0,9.46,-7.324,17.761,0.0,0.0,0
1023,27.5,100702.0,0.058,-0.025,-0.897,-50.0,-55.0,-10.0,-4.455,-16.418,12.878,0.0,0.0,0
1024,27.5,100699.0,0.0,0.017,-0.964,-50.0,-55.0,-10.0,-7.69,-3.112,14.587,0.0,0.0,0
1025,27.5,100699.0,0.127,0.009,-0.931,-50.0,-55.0,-10.0,-18.249,-7.446,23.071,0.0,0.0,0
1026,27.5,100701.0,0.127,0.062,-1.014,-50.0,-55.0,-10.0,-5.859,6.103,20.019,0.0,0.0,0
1027,27.5,100696.0,0.116,-0.005,-1.012,-50.0,-55.0,-10.0,-6.286,8.605,23.498,0.0,0.0,0
1028,27.5,100695.0,0.083,0.008,-1.072,-50.0,-55.0,-10.0,7.385,1.281,5.004,0.0,0.0,0
1029,27.5,100699.0,0.069,-0.116,-1.018,-50.0,-55.0,-10.0,12.268,14.099,2.441,0.0,0.0,0
1030,27.5,100703.0,0.014,-0.049,-1.043,-50.0,-55.0,-10.0,1.586,-10.375,-6.347,0.0,0.0,0
1031,27.5,100699.0,0.027,-0.112,-0.98,-50.0,-55.0,-10.0,-11.84,-17.333,-2.502,0.0,0.0,0
1032,27.5,100694.0,0.061,-0.076,-0.897,-50.0,-55.0,-10.0,-5.371,6.103,3.112,0.0,0.0,0
1033,27.5,100699.0,0.106,-0.049,-0.916,-50.0,-55.0,-10.0,-14.77,-9.521,-1.647,0.0,0.0,0
1034,27.5,100699.0,0.07,-0.062,-0.962,-50.0,-55.0,-10.0,-17.456,-22.766,-5.249,0.0,0.0,0
1035,27.5,100699.0,0.09,-0.089,-0.935,-50.0,-55.0,-10.0,-5.371,-2.685,-6.103,0.0,0.0,0
1036,27.5,100705.0,0.078,-0.085,-1.037,-50.0,-55.0,-10.0,2.38,-2.563,12.145,0.0,0.0,0
1037,27.5,100704.0,0.033,0.052,-1.01,-50.0,-55.0,-10.0,3.295,-31.86,22.583,0.0,0.0,0
1038,27.5,100704.0,0.104,0.023,-0.984,-50.0,-55.0,-10.0,17.211,13.916,9.948,0.0,0.0,0
1039,27.5,100705.0,0.113,0.057,-0.869,-50.0,-55.0,-10.0,-9.46,-3.112,-2.685,0.0,0.0,0
1040,27.5,100710.0,0.149,-0.007,-0.99,-50.0,-55.0,-10.0,-6.042,28.503,17.517,0.0,0.0,0
1041,27.5,100705.0,0.128,0.02,-1.058,-50.0,-55.0,-10.0,-14.465,14.892,32.836,0.0,0.0,0
1042,27.5,100707.0,0.082,0.057,-1.058,-50.0,-55.0,-10.0,-14.282,-5.31,36.743,0.0,0.0,0
1043,27.5,100705.0,0.071,0.004,-1.001,-50.0,-55.0,-10.0,-18.371,-8.361,35.034,0.0,0.0,0
1044,27.5,100697.0,0.103,0.081,-0.941,-50.0,-55.0,-10.0,0.671,-8.911,21.179,0.0,0.0,0
1045,27.5,100708.0,0.076,-0.015,-0.976,-50.0,-55.0,-10.0,-8.422,12.145,25.268,0.0,0.0,0
1046,27.5,100702.0,0.059,0.0,-1.079,-50.0,-55.0,-10.0,2.014,12.634,17.578,0.0,0.0,0
1047,27.5,100695.0,0.06,-0.037,-0.989,-50.0,-55.0,-10.0,-11.23,4.455,15.869,0.0,0.0,0
1048,27.5,100694.0,0.061,-0.091,-0.942,-50.0,-55.0,-10.0,-12.634,-2.624,8.666,0.0,0.0,0
1049,27.5,100699.0,0.054,-0.068,-0.941,-50.0,-55.0,-10.0,-5.92,9.277,4.577,0.0,0.0,0
1050,27.5,100696.0,0.053,-0.096,-0.947,-50.0,-55.0,-10.0,-9.643,0.915,2.929,0.0,0.0,0
1051,27.5,100698.0,0.051,-0.046,-0.917,-50.0,-55.0,-10.0,1.647,7.324,11.84,0.0,0.0,0
1052,27.5,100700.0,0.071,-0.028,-0.937,-50.0,-55.0,-10.0,-1.77,-1.77,6.713,0.0,0.0,0
1053,27.5,100703.0,0.045,-0.059,-1.007,-50.0,-55.0,-10.0,-4.455,-6.652,0.183,0.0,0.0,0
1054,27.5,100700.0,0.063,0.008,-0.987,-50.0,-55.0,-10.0,-20.385,-26.184,-7.446,0.0,0.0,0
1055,27.5,100698.0,0.036,0.111,-0.994,-50.0,-55.0,-10.0,14.16,13.366,9.826,0.0,0.0,0
1056,27.5,100691.0,0.089,-0.081,-0.941,-50.0,-55.0,-10.0,-10.864,-31.86,-6.408,0.0,0.0,0
1057,27.5,100704.0,0.043,0.118,-1.067,-50.0,-55.0,-10.0,22.827,18.066,40.466,0.0,0.0,0
1058,27.5,100694.0,0.118,0.029,-0.954,-50.0,-55.0,-10.0,-0.854,-35.034,7.568,0.0,0.0,0
1059,27.5,100705.0,0.093,0.096,-1.005,-50.0,-55.0,-10.0,-8.972,20.874,24.414,0.0,0.0,0
1060,27.5,100698.0,0.158,0.168,-0.981,-50.0,-55.0,-10.0,6.408,4.272,28.625,0.0,0.0,0
1061,27.5,100706.0,0.165,0.083,-1.009,-50.0,-55.0,-10.0,-16.357,9.094,16.357,0.0,0.0,0
1062,27.5,100699.0,0.189,0.039,-1.011,-50.0,-55.0,-10.0,-0.854,2.685,16.967,0.0,0.0,0
1063,27.5,100703.0,0.172,0.106,-1.008,-50.0,-55.0,-10.0,-18.92,6.713,17.089,0.0,0.0,0
1064,27.5,100701.0,0.125,0.043,-0.963,-50.0,-55.0,-10.0,-7.324,2.563,7.446,0.0,0.0,0
1065,27.5,100696.0,0.151,0.062,-1.064,-50.0,-55.0,-10.0,1.892,0.122,33.02,0.0,0.0,0
1066,27.5,100695.0,0.141,0.024,-0.949,-50.0,-55.0,-10.0,-7.385,-4.516,5.676,0.0,0.0,0
1067,27.5,100698.0,-0.011,0.066,-1.024,-50.0,-55.0,-10.0,-8.728,5.004,4.455,0.0,0.0,0
1068,27.5,100695.0,-0.003,-0.05,-0.976,-50.0,-55.0,-10.0,-10.253,6.774,13.916,0.0,0.0,0
1069,27.5,100700.0,-0.01,-0.077,-0.95,-50.0,-55.0,-10.0,-5.798,-2.563,22.155,0.0,0.0,0
1070,27.5,100700.0,-0.01,0.005,-0.927,-50.0,-55.0,-10.0,-8.178,-7.08,32.043,0.0,0.0,0
1071,27.5,100693.0,0.006,-0.044,-0.939,-50.0,-55.0,-10.0,-17.395,-1.403,39.428,0.0,0.0,0
1072,27.5,100693.0,0.069,0.016,-0.986,-50.0,-55.0,-10.0,-25.024,-14.587,51.696,0.0,0.0,0
1073,27.5,100693.0,0.16,0.057,-0.966,-50.0,-55.0,-10.0,1.098,-9.277,57.922,0.0,0.0,0
1074,27.5,100696.0,0.07,-0.042,-1.014,-50.0,-55.0,-10.0,-13.549,22.521,26.977,0.0,0.0,0
1075,27.5,100691.0,0.027,0.074,-1.113,-50.0,-55.0,-10.0,-7.019,-13.61,61.645,0.0,0.0,0
1076,27.5,100697.0,0.0,0.087,-1.086,-50.0,-55.0,-10.0,15.136,12.145,46.264,0.0,0.0,0
1077,27.5,100698.0,0.045,0.114,-1.068,-50.0,-55.0,-10.0,-21.362,-26.916,64.575,0.0,0.0,0
1078,27.6,100695.0,0.057,0.1,-0.848,-50.0,-55.0,-10.0,-31.555,-22.949,51.94,0.0,0.0,0
1079,27.5,100697.0,0.204,0.098,-0.944,-50.0,-55.0,-10.0,-27.099,-2.563,75.195,0.0,0.0,0
1080,27.6,100706.0,0.121,0.099,-0.958,-50.0,-55.0,-10.0,-14.343,14.709,50.17,0.0,0.0,0
1081,27.5,100698.0,0.123,-0.026,-1.037,-50.0,-55.0,-10.0,10.925,0.976,55.175,0.0,0.0,0
1082,27.6,100695.0,0.005,0.033,-0.952,-50.0,-55.0,-10.0,13.122,-27.099,29.663,0.0,0.0,0
1083,27.5,100705.0,0.045,-0.095,-0.918,-50.0,-55.0,-10.0,1.342,21.057,11.901,0.0,0.0,0
1084,27.6,100707.0,-0.053,-0.006,-1.04,-50.0,-55.0,-10.0,4.333,-9.582,26.855,0.0,0.0,0
1085,27.6,100695.0,0.031,0.107,-0.942,-50.0,-55.0,-10.0,-12.084,-9.277,27.099,0.0,0.0,0
1086,27.5,100701.0,0.172,-0.028,-1.003,-50.0,-55.0,-10.0,-2.807,-29.663,6.469,0.0,0.0,0
1087,27.6,100694.0,0.133,0.109,-1.059,-50.0,-55.0,-10.0,-23.864,-17.944,-4.699,0.0,0.0,0
1088,27.6,100705.0,0.226,0.081,-0.966,-50.0,-55.0,-10.0,-4.821,-26.062,-19.958,0.0,0.0,0
1089,27.6,100699.0,0.153,0.026,-0.998,-50.0,-55.0,-10.0,-6.774,4.577,-37.597,0.0,0.0,0
1090,27.6,100699.0,0.231,-0.061,-0.958,-50.0,-55.0,-10.0,12.329,7.873,-28.564,0.0,0.0,0
1091,27.6,100702.0,0.135,-0.014,-1.059,-50.0,-55.0,-10.0,27.465,13.122,-37.841,0.0,0.0,0
1092,27.6,100699.0,0.041,0.026,-0.908,-50.0,-55.0,-10.0,-3.662,11.169,-38.574,0.0,0.0,0
1093,27.6,100698.0,0.17,-0.07,-0.898,-50.0,-55.0,-10.0,-5.004,-23.437,-49.072,0.0,0.0,0
1094,27.6,100699.0,0.132,-0.007,-0.945,-50.0,-55.0,-10.0,-22.094,-4.76,-48.889,0.0,0.0,0
1095,27.6,100698.0,0.227,-0.041,-1.036,-50.0,-55.0,-10.0,-23.864,2.502,-34.606,0.0,0.0,0
1096,27.6,100700.0,0.179,-0.049,-0.894,-50.0,-55.0,-10.0,-17.517,-2.502,-37.658,0.0,0.0,0
1097,27.5,100696.0,0.103,-0.023,-1.003,-50.0,-55.0,-10.0,4.333,2.441,-15.136,0.0,0.0,0
1098,27.6,100693.0,0.114,-0.002,-1.018,-50.0,-55.0,-10.0,-14.648,-5.798,-10.559,0.0,0.0,0
1099,27.6,100691.0,0.089,-0.086,-0.997,-50.0,-55.0,-10.0,-0.366,-8.911,-4.943,0.0,0.0,0
1100,27.6,100690.0,0.106,-0.088,-0.926,-50.0,-55.0,-10.0,0.183,-22.949,-11.047,0.0,0.0,0
1101,27.6,100693.0,0.017,-0.095,-0.992,-50.0,-55.0,-10.0,-4.76,-1.403,10.559,0.0,0.0,0
1102,27.6,100698.0,0.13,-0.059,-1.111,-50.0,-55.0,-10.0,14.648,-1.586,-6.958,0.0,0.0,0
1103,27.6,100696.0,0.144,-0.121,-0.94,-50.0,-55.0,-10.0,2.99,2.929,-21.24,0.0,0.0,0
1104,27.6,100697.0,0.11,-0.068,-0.97,-50.0,-55.0,-10.0,9.704,12.329,-21.118,0.0,0.0,0
1105,27.6,100697.0,0.073,-0.051,-0.938,-50.0,-55.0,-10.0,-12.084,8.605,-18.859,0.0,0.0,0
1106,27.6,100698.0,0.092,-0.079,-1.015,-50.0,-55.0,-10.0,-8.728,-2.624,-6.713,0.0,0.0,0
1107,27.6,100695.0,0.158,-0.068,-0.988,-50.0,-55.0,-10.0,0.244,10.986,-12.817,0.0,0.0,0
1108,27.6,100698.0,-0.069,-0.075,-0.881,-50.0,-55.0,-10.0,-16.052,6.225,8.3,0.0,0.0,0
1109,27.6,100697.0,0.166,-0.072,-1.063,-50.0,-55.0,-10.0,-3.417,2.99,8.117,0.0,0.0,0
1110,27.6,100692.0,0.136,-0.085,-0.944,-50.0,-55.0,-10.0,10.742,-10.803,1.22,0.0,0.0,0
1111,27.6,100695.0,0.129,-0.054,-0.983,-50.0,-55.0,-10.0,-7.69,10.681,-8.605,0.0,0.0,0
1112,27.6,100689.0,0.118,-0.046,-0.994,-50.0,-55.0,-10.0,-4.699,2.197,0.854,0.0,0.0,0
1113,27.6,100695.0,0.093,-0.023,-0.978,-50.0,-55.0,-10.0,-9.399,-2.685,3.356,0.0,0.0,0
1114,27.6,100702.0,0.14,-0.057,-0.961,-50.0,-55.0,-10.0,-11.047,-4.028,-2.563,0.0,0.0,0
1115,27.6,100691.0,0.125,-0.1,-0.949,-50.0,-55.0,-10.0,-9.338,9.765,1.892,0.0,0.0,0
1116,27.6,100690.0,0.086,-0.095,-0.843,-50.0,-55.0,-10.0,-1.037,0.61,8.605,0.0,0.0,0
1117,27.6,100698.0,0.109,0.009,-0.656,-50.0,-55.0,-10.0,-5.432,-19.104,3.234,0.0,0.0,0
1118,27.6,100698.0,0.053,-0.081,0.67,-50.0,-55.0,-10.0,-10.925,-9.399,8.911,0.0,0.0,0
1119,27.6,100691.0,0.28,-0.131,1.166,-50.0,-55.0,-10.0,16.357,122.375,56.762,0.0,0.0,0
1120,27.6,100699.0,0.049,0.305,-1.705,-50.0,-55.0,-10.0,150.939,-87.768,-3.784,0.0,0.0,0
1121,27.6,100702.0,0.188,0.038,-2.217,-50.0,-55.0,-10.0,-124.816,-0.305,-40.1,0.0,0.0,0
1122,27.6,100708.0,0.188,0.038,-2.217,-50.0,-55.0,-10.0,-124.816,-0.305,-40.1,0.0,0.0,0
1123,27.6,100710.0,0.188,0.038,-2.217,-50.0,-55.0,-10.0,-124.816,-0.305,-40.1,0.0,0.0,0
1124,27.6,100702.0,0.188,0.038,-2.217,-50.0,-55.0,-10.0,-124.816,-0.305,-40.1,0.0,0.0,0
1125,27.6,100701.0,0.188,0.038,-2.217,-50.0,-55.0,-10.0,-124.816,-0.305,-40.1,0.0,0.0,0
1126,27.6,100704.0,0.188,0.038,-2.217,-50.0,-55.0,-10.0,-124.816,-0.305,-40.1,0.0,0.0,0
1127,27.6,100702.0,0.188,0.038,-2.217,-50.0,-55.0,-10.0,-124.816,-0.305,-40.1,0.0,0.0,0
1128,27.6,100700.0,0.188,0.038,-2.217,-50.0,-55.0,-10.0,-124.816,-0.305,-40.1,0.0,0.0,0
1129,27.6,100700.0,0.188,0.038,-2.217,-50.0,-55.0,-10.0,-124.816,-0.305,-40.1,0.0,0.0,0
1130,27.6,100699.0,0.188,0.038,-2.217,-50.0,-55.0,-10.0,-124.816,-0.305,-40.1,0.0,0.0,0
1131,27.6,100694.0,0.188,0.038,-2.217,-50.0,-55.0,-10.0,-124.816,-0.305,-40.1,0.0,0.0,0
1132,27.6,100701.0,0.188,0.038,-2.217,-50.0,-55.0,-10.0,-124.816,-0.305,-40.1,0.0,0.0,0
1133,27.6,100704.0,0.188,0.038,-2.217,-50.0,-55.0,-10.0,-124.816,-0.305,-40.1,0.0,0.0,0
1134,27.6,100694.0,0.188,0.038,-2.217,-50.0,-55.0,-10.0,-124.816,-0.305,-40.1,0.0,0.0,0
1135,27.6,100699.0,0.188,0.038,-2.217,-50.0,-55.0,-10.0,-124.816,-0.305,-40.1,0.0,0.0,0
1136,27.6,100701.0,0.188,0.038,-2.217,-50.0,-55.0,-10.0,-124.816,-0.305,-40.1,0.0,0.0,0
1137,27.7,100708.0,0.188,0.038,-2.217,-50.0,-55.0,-10.0,-124.816,-0.305,-40.1,0.0,0.0,0
1138,27.7,100700.0,0.188,0.038,-2.217,-50.0,-55.0,-10.0,-124.816,-0.305,-40.1,0.0,0.0,0
1139,27.7,100712.0,0.188,0.038,-2.217,-50.0,-55.0,-10.0,-124.816,-0.305,-40.1,0.0,0.0,0
1140,27.7,100709.0,0.188,0.038,-2.217,-50.0,-55.0,-10.0,-124.816,-0.305,-40.1,0.0,0.0,0
1141,27.7,100704.0,0.188,0.038,-2.217,-50.0,-55.0,-10.0,-124.816,-0.305,-40.1,0.0,0.0,0
1142,27.7,100703.0,0.188,0.038,-2.217,-50.0,-55.0,-10.0,-124.816,-0.305,-40.1,0.0,0.0,0
1143,27.7,100701.0,0.188,0.038,-2.217,-50.0,-55.0,-10.0,-124.816,-0.305,-40.1,0.0,0.0,0
1144,27.7,100702.0,0.188,0.038,-2.217,-50.0,-55.0,-10.0,-124.816,-0.305,-40.1,0.0,0.0,0
1145,27.7,100698.0,0.188,0.038,-2.217,-50.0,-55.0,-10.0,-124.816,-0.305,-40.1,0.0,0.0,0
1146,27.7,100703.0,0.188,0.038,-2.217,-50.0,-55.0,-10.0,-124.816,-0.305,-40.1,0.0,0.0,0
1147,27.7,100700.0,0.188,0.038,-2.217,-50.0,-55.0,-10.0,-124.816,-0.305,-40.1,0.0,0.0,0
1148,27.7,100704.0,0.188,0.038,-2.217,-50.0,-55.0,-10.0,-124.816,-0.305,-40.1,0.0,0.0,0
1149,27.7,100708.0,0.188,0.038,-2.217,-50.0,-55.0,-10.0,-124.816,-0.305,-40.1,0.0,0.0,0
1150,27.7,100712.0,0.188,0.038,-2.217,-50.0,-55.0,-10.0,-124.816,-0.305,-40.1,0.0,0.0,0
1151,27.7,100706.0,0.188,0.038,-2.217,-50.0,-55.0,-10.0,-124.816,-0.305,-40.1,0.0,0.0,0
1152,27.7,100706.0,0.188,0.038,-2.217,-50.0,-55.0,-10.0,-124.816,-0.305,-40.1,0.0,0.0,0
1153,27.7,100702.0,0.188,0.038,-2.217,-50.0,-55.0,-10.0,-124.816,-0.305,-40.1,0.0,0.0,0
1154,27.7,100701.0,0.188,0.038,-2.217,-50.0,-55.0,-10.0,-124.816,-0.305,-40.1,0.0,0.0,0
1155,27.7,100701.0,0.188,0.038,-2.217,-50.0,-55.0,-10.0,-124.816,-0.305,-40.1,0.0,0.0,0
1156,27.7,100702.0,0.188,0.038,-2.217,-50.0,-55.0,-10.0,-124.816,-0.305,-40.1,0.0,0.0,0
1157,27.7,100698.0,0.188,0.038,-2.217,-50.0,-55.0,-10.0,-124.816,-0.305,-40.1,0.0,0.0,0
1158,27.7,100697.0,0.188,0.038,-2.217,-50.0,-55.0,-10.0,-124.816,-0.305,-40.1,0.0,0.0,0
1159,27.7,100701.0,0.188,0.038,-2.217,-50.0,-55.0,-10.0,-124.816,-0.305,-40.1,0.0,0.0,0
1160,27.7,100700.0,0.188,0.038,-2.217,-50.0,-55.0,-10.0,-124.816,-0.305,-40.1,0.0,0.0,0
1161,27.7,100699.0,0.188,0.038,-2.217,-50.0,-55.0,-10.0,-124.816,-0.305,-40.1,0.0,0.0,0
1162,27.7,100695.0,0.188,0.038,-2.217,-50.0,-55.0,-10.0,-124.816,-0.305,-40.1,0.0,0.0,0
1163,27.7,100696.0,0.188,0.038,-2.217,-50.0,-55.0,-10.0,-124.816,-0.305,-40.1,0.0,0.0,0
1164,27.7,100699.0,0.188,0.038,-2.217,-50.0,-55.0,-10.0,-124.816,-0.305,-40.1,0.0,0.0,0
1165,27.7,100704.0,0.188,0.038,-2.217,-50.0,-55.0,-10.0,-124.816,-0.305,-40.1,0.0,0.0,0
1166,27.7,100697.0,0.188,0.038,-2.217,-50.0,-55.0,-10.0,-124.816,-0.305,-40.1,0.0,0.0,0
1167,27.7,100694.0,0.188,0.038,-2.217,-50.0,-55.0,-10.0,-124.816,-0.305,-40.1,0.0,0.0,0
1168,27.7,100696.0,0.188,0.038,-2.217,-50.0,-55.0,-10.0,-124.816,-0.305,-40.1,0.0,0.0,0
1169,27.7,100696.0,0.188,0.038,-2.217,-50.0,-55.0,-10.0,-124.816,-0.305,-40.1,0.0,0.0,0
1170,27.7,100704.0,0.188,0.038,-2.217,-50.0,-55.0,-10.0,-124.816,-0.305,-40.1,0.0,0.0,0
1171,27.7,100699.0,0.188,0.038,-2.217,-50.0,-55.0,-10.0,-124.816,-0.305,-40.1,0.0,0.0,0
1172,27.7,100698.0,0.188,0.038,-2.217,-50.0,-55.0,-10.0,-124.816,-0.305,-40.1,0.0,0.0,0
1173,27.7,100695.0,0.188,0.038,-2.217,-50.0,-55.0,-10.0,-124.816,-0.305,-40.1,0.0,0.0,0
1174,27.7,100696.0,0.188,0.038,-2.217,-50.0,-55.0,-10.0,-124.816,-0.305,-40.1,0.0,0.0,0
1175,27.7,100695.0,0.188,0.038,-2.217,-50.0,-55.0,-10.0,-124.816,-0.305,-40.1,0.0,0.0,0
1176,27.7,100699.0,0.188,0.038,-2.217,-50.0,-55.0,-10.0,-124.816,-0.305,-40.1,0.0,0.0,0
1177,27.7,100699.0,0.188,0.038,-2.217,-50.0,-55.0,-10.0,-124.816,-0.305,-40.1,0.0,0.0,0
1178,27.7,100704.0,0.188,0.038,-2.217,-50.0,-55.0,-10.0,-124.816,-0.305,-40.1,0.0,0.0,0
1179,27.7,100697.0,0.188,0.038,-2.217,-50.0,-55.0,-10.0,-124.816,-0.305,-40.1,0.0,0.0,0
1180,27.7,100699.0,0.188,0.038,-2.217,-50.0,-55.0,-10.0,-124.816,-0.305,-40.1,0.0,0.0,0
1181,27.7,100701.0,0.188,0.038,-2.217,-50.0,-55.0,-10.0,-124.816,-0.305,-40.1,0.0,0.0,0
1182,27.7,100701.0,0.188,0.038,-2.217,-50.0,-55.0,-10.0,-124.816,-0.305,-40.1,0.0,0.0,0
1183,27.7,100695.0,0.188,0.038,-2.217,-50.0,-55.0,-10.0,-124.816,-0.305,-40.1,0.0,0.0,0
1184,27.7,100692.0,0.188,0.038,-2.217,-50.0,-55.0,-10.0,-124.816,-0.305,-40.1,0.0,0.0,0
1185,27.7,100700.0,0.188,0.038,-2.217,-50.0,-55.0,-10.0,-124.816,-0.305,-40.1,0.0,0.0,0
1186,27.7,100701.0,0.188,0.038,-2.217,-50.0,-55.0,-10.0,-124.816,-0.305,-40.1,0.0,0.0,0
1187,27.7,100703.0,0.188,0.038,-2.217,-50.0,-55.0,-10.0,-124.816,-0.305,-40.1,0.0,0.0,0
1188,27.7,100689.0,0.188,0.038,-2.217,-50.0,-55.0,-10.0,-124.816,-0.305,-40.1,0.0,0.0,0
1189,27.7,100698.0,0.188,0.038,-2.217,-50.0,-55.0,-10.0,-124.816,-0.305,-40.1,0.0,0.0,0
1190,27.7,100697.0,0.188,0.038,-2.217,-50.0,-55.0,-10.0,-124.816,-0.305,-40.1,0.0,0.0,0
1191,27.7,100698.0,0.188,0.038,-2.217,-50.0,-55.0,-10.0,-124.816,-0.305,-40.1,0.0,0.0,0
1192,27.7,100697.0,0.188,0.038,-2.217,-50.0,-55.0,-10.0,-124.816,-0.305,-40.1,0.0,0.0,0
1193,27.7,100700.0,0.188,0.038,-2.217,-50.0,-55.0,-10.0,-124.816,-0.305,-40.1,0.0,0.0,0
1194,27.7,100703.0,0.188,0.038,-2.217,-50.0,-55.0,-10.0,-124.816,-0.305,-40.1,0.0,0.0,0
1195,27.7,100699.0,0.188,0.038,-2.217,-50.0,-55.0,-10.0,-124.816,-0.305,-40.1,0.0,0.0,0
1196,27.7,100700.0,0.188,0.038,-2.217,-50.0,-55.0,-10.0,-124.816,-0.305,-40.1,0.0,0.0,0
1197,27.7,100701.0,0.188,0.038,-2.217,-50.0,-55.0,-10.0,-124.816,-0.305,-40.1,0.0,0.0,0
1198,27.7,100700.0,0.188,0.038,-2.217,-50.0,-55.0,-10.0,-124.816,-0.305,-40.1,0.0,0.0,0
1199,27.7,100701.0,0.188,0.038,-2.217,-50.0,-55.0,-10.0,-124.816,-0.305,-40.1,0.0,0.0,0
1200,27.7,100706.0,0.188,0.038,-2.217,-50.0,-55.0,-10.0,-124.816,-0.305,-40.1,0.0,0.0,0
1201,27.7,100699.0,0.188,0.038,-2.217,-50.0,-55.0,-10.0,-124.816,-0.305,-40.1,0.0,0.0,0
1202,27.7,100698.0,0.188,0.038,-2.217,-50.0,-55.0,-10.0,-124.816,-0.305,-40.1,0.0,0.0,0
1203,27.7,100693.0,0.188,0.038,-2.217,-50.0,-55.0,-10.0,-124.816,-0.305,-40.1,0.0,0.0,0
1204,27.7,100698.0,0.188,0.038,-2.217,-50.0,-55.0,-10.0,-124.816,-0.305,-40.1,0.0,0.0,0
1205,27.7,100695.0,0.188,0.038,-2.217,-50.0,-55.0,-10.0,-124.816,-0.305,-40.1,0.0,0.0,0
1206,27.7,100696.0,0.188,0.038,-2.217,-50.0,-55.0,-10.0,-124.816,-0.305,-40.1,0.0,0.0,0
1207,27.7,100697.0,0.188,0.038,-2.217,-50.0,-55.0,-10.0,-124.816,-0.305,-40.1,0.0,0.0,0
1208,27.7,100701.0,0.188,0.038,-2.217,-50.0,-55.0,-10.0,-124.816,-0.305,-40.1,0.0,0.0,0
1209,27.7,100698.0,0.188,0.038,-2.217,-50.0,-55.0,-10.0,-124.816,-0.305,-40.1,0.0,0.0,0
1210,27.7,100690.0,0.188,0.038,-2.217,-50.0,-55.0,-10.0,-124.816,-0.305,-40.1,0.0,0.0,0
1211,27.7,100693.0,0.188,0.038,-2.217,-50.0,-55.0,-10.0,-124.816,-0.305,-40.1,0.0,0.0,0
1212,27.7,100695.0,0.188,0.038,-2.217,-50.0,-55.0,-10.0,-124.816,-0.305,-40.1,0.0,0.0,0
1213,27.7,100697.0,0.188,0.038,-2.217,-50.0,-55.0,-10.0,-124.816,-0.305,-40.1,0.0,0.0,0
1214,27.7,100693.0,0.188,0.038,-2.217,-50.0,-55.0,-10.0,-124.816,-0.305,-40.1,0.0,0.0,0
1215,27.7,100694.0,0.188,0.038,-2.217,-50.0,-55.0,-10.0,-124.816,-0.305,-40.1,0.0,0.0,0
1216,27.7,100700.0,0.188,0.038,-2.217,-50.0,-55.0,-10.0,-124.816,-0.305,-40.1,0.0,0.0,0
1217,27.7,100700.0,0.188,0.038,-2.217,-50.0,-55.0,-10.0,-124.816,-0.305,-40.1,0.0,0.0,0
1218,27.7,100694.0,0.188,0.038,-2.217,-50.0,-55.0,-10.0,-124.816,-0.305,-40.1,0.0,0.0,0
1219,27.7,100703.0,0.188,0.038,-2.217,-50.0,-55.0,-10.0,-124.816,-0.305,-40.1,0.0,0.0,0
1220,27.7,100701.0,0.188,0.038,-2.217,-50.0,-55.0,-10.0,-124.816,-0.305,-40.1,0.0,0.0,0
1221,27.7,100704.0,0.188,0.038,-2.217,-50.0,-55.0,-10.0,-124.816,-0.305,-40.1,0.0,0.0,0
1222,27.7,100697.0,0.188,0.038,-2.217,-50.0,-55.0,-10.0,-124.816,-0.305,-40.1,0.0,0.0,0
1223,27.7,100701.0,0.188,0.038,-2.217,-50.0,-55.0,-10.0,-124.816,-0.305,-40.1,0.0,0.0,0
1224,27.7,100703.0,0.188,0.038,-2.217,-50.0,-55.0,-10.0,-124.816,-0.305,-40.1,0.0,0.0,0
1225,27.799,100703.0,0.188,0.038,-2.217,-50.0,-55.0,-10.0,-124.816,-0.305,-40.1,0.0,0.0,0
1226,27.799,100707.0,0.188,0.038,-2.217,-50.0,-55.0,-10.0,-124.816,-0.305,-40.1,0.0,0.0,0
1227,27.799,100709.0,0.188,0.038,-2.217,-50.0,-55.0,-10.0,-124.816,-0.305,-40.1,0.0,0.0,0
1228,27.799,100709.0,0.188,0.038,-2.217,-50.0,-55.0,-10.0,-124.816,-0.305,-40.1,0.0,0.0,0
1229,27.799,100710.0,0.188,0.038,-2.217,-50.0,-55.0,-10.0,-124.816,-0.305,-40.1,0.0,0.0,0
1230,27.799,100701.0,0.188,0.038,-2.217,-50.0,-55.0,-10.0,-124.816,-0.305,-40.1,0.0,0.0,0
1231,27.799,100700.0,0.188,0.038,-2.217,-50.0,-55.0,-10.0,-124.816,-0.305,-40.1,0.0,0.0,0
1232,27.799,100708.0,0.188,0.038,-2.217,-50.0,-55.0,-10.0,-124.816,-0.305,-40.1,0.0,0.0,0
1233,27.799,100706.0,0.188,0.038,-2.217,-50.0,-55.0,-10.0,-124.816,-0.305,-40.1,0.0,0.0,0
1234,27.7,100708.0,0.188,0.038,-2.217,-50.0,-55.0,-10.0,-124.816,-0.305,-40.1,0.0,0.0,0
1235,27.799,100706.0,0.188,0.038,-2.217,-50.0,-55.0,-10.0,-124.816,-0.305,-40.1,0.0,0.0,0
1236,27.799,100700.0,0.188,0.038,-2.217,-50.0,-55.0,-10.0,-124.816,-0.305,-40.1,0.0,0.0,0
1237,27.799,100706.0,0.188,0.038,-2.217,-50.0,-55.0,-10.0,-124.816,-0.305,-40.1,0.0,0.0,0
1238,27.799,100705.0,0.188,0.038,-2.217,-50.0,-55.0,-10.0,-124.816,-0.305,-40.1,0.0,0.0,0
1239,27.799,100704.0,0.188,0.038,-2.217,-50.0,-55.0,-10.0,-124.816,-0.305,-40.1,0.0,0.0,0
1240,27.799,100704.0,0.188,0.038,-2.217,-50.0,-55.0,-10.0,-124.816,-0.305,-40.1,0.0,0.0,0
1241,27.799,100703.0,0.188,0.038,-2.217,-50.0,-55.0,-10.0,-124.816,-0.305,-40.1,0.0,0.0,0
1242,27.799,100708.0,0.188,0.038,-2.217,-50.0,-55.0,-10.0,-124.816,-0.305,-40.1,0.0,0.0,0
1243,27.799,100699.0,0.188,0.038,-2.217,-50.0,-55.0,-10.0,-124.816,-0.305,-40.1,0.0,0.0,0
1244,27.799,100706.0,0.188,0.038,-2.217,-50.0,-55.0,-10.0,-124.816,-0.305,-40.1,0.0,0.0,0
1245,27.799,100710.0,0.188,0.038,-2.217,-50.0,-55.0,-10.0,-124.816,-0.305,-40.1,0.0,0.0,0
1246,27.799,100707.0,0.188,0.038,-2.217,-50.0,-55.0,-10.0,-124.816,-0.305,-40.1,0.0,0.0,0
1247,27.7,100705.0,0.188,0.038,-2.217,-50.0,-55.0,-10.0,-124.816,-0.305,-40.1,0.0,0.0,0
1248,27.799,100717.0,0.188,0.038,-2.217,-50.0,-55.0,-10.0,-124.816,-0.305,-40.1,0.0,0.0,0
1249,27.799,100703.0,0.188,0.038,-2.217,-50.0,-55.0,-10.0,-124.816,-0.305,-40.1,0.0,0.0,0
1250,27.799,100707.0,0.188,0.038,-2.217,-50.0,-55.0,-10.0,-124.816,-0.305,-40.1,0.0,0.0,0
1251,27.799,100709.0,0.188,0.038,-2.217,-50.0,-55.0,-10.0,-124.816,-0.305,-40.1,0.0,0.0,0
1252,27.799,100702.0,0.188,0.038,-2.217,-50.0,-55.0,-10.0,-124.816,-0.305,-40.1,0.0,0.0,0
1253,27.799,100706.0,0.188,0.038,-2.217,-50.0,-55.0,-10.0,-124.816,-0.305,-40.1,0.0,0.0,0
1254,27.799,100700.0,0.188,0.038,-2.217,-50.0,-55.0,-10.0,-124.816,-0.305,-40.1,0.0,0.0,0
1255,27.799,100703.0,0.188,0.038,-2.217,-50.0,-55.0,-10.0,-124.816,-0.305,-40.1,0.0,0.0,0
1256,-72.8,284638.0,0.188,0.038,-2.217,-50.0,-55.0,-10.0,-124.816,-0.305,-40.1,0.0,0.0,0
1257,27.799,100715.0,0.188,0.038,-2.217,-50.0,-55.0,-10.0,-124.816,-0.305,-40.1,0.0,0.0,0
1258,27.799,100711.0,0.188,0.038,-2.217,-50.0,-55.0,-10.0,-124.816,-0.305,-40.1,0.0,0.0,0
1259,27.799,100709.0,1.535,-1.609,-6.74,-50.0,-55.0,-10.0,562.377,1770.69,396.667,0.0,0.0,0
1260,27.799,100709.0,-0.035,-0.38,-6.646,-50.0,-55.0,-10.0,-206.787,-1508.605,21.24,0.0,0.0,0
1261,27.799,100715.0,1.744,-0.685,-7.345,-50.0,-55.0,-10.0,-138.793,85.144,85.693,0.0,0.0,0
1262,27.799,100709.0,1.662,-0.845,-7.169,-50.0,-55.0,-10.0,-80.261,-170.593,6.713,0.0,0.0,0
1263,27.799,100716.0,0.978,-0.421,-7.263,-50.0,-55.0,-10.0,-37.963,93.933,52.307,0.0,0.0,0
1264,27.799,100710.0,1.236,-0.875,-7.267,-50.0,-55.0,-10.0,53.833,167.663,80.566,0.0,0.0,0
1265,27.799,100714.0,2.074,-0.218,-9.007,-50.0,-55.0,-10.0,173.095,203.308,46.63,0.0,0.0,0
1266,27.799,100718.0,-0.082,2.009,-6.462,-50.0,-55.0,-10.0,66.589,460.021,92.712,0.0,0.0,0
1267,27.799,100712.0,0.693,0.316,-7.419,-50.0,-55.0,-10.0,34.118,-27.16,7.202,0.0,0.0,0
1268,27.799,100720.0,0.626,0.251,-6.882,-50.0,-55.0,-10.0,8.728,-50.109,-28.137,0.0,0.0,0
1269,27.799,100714.0,0.675,0.23,-7.619,-50.0,-55.0,-10.0,-48.156,-11.718,38.269,0.0,0.0,0
1270,27.799,100718.0,0.689,0.298,-7.462,-50.0,-55.0,-10.0,-52.368,1.403,17.15,0.0,0.0,0
1271,27.799,100717.0,0.886,0.134,-7.427,-50.0,-55.0,-10.0,-38.024,-102.478,-15.808,0.0,0.0,0
1272,27.799,100720.0,1.085,0.205,-7.484,-50.0,-55.0,-10.0,2.136,-8.666,2.136,0.0,0.0,0
1273,27.799,100725.0,0.773,0.314,-7.46,-50.0,-55.0,-10.0,10.986,14.465,-5.92,0.0,0.0,0
1274,27.799,100729.0,0.535,0.523,-7.55,-50.0,-55.0,-10.0,-56.762,-12.329,-1.281,0.0,0.0,0
1275,27.799,100723.0,0.839,0.496,-7.634,-50.0,-55.0,-10.0,-0.427,-57.556,-80.383,0.0,0.0,0
1276,27.799,100721.0,0.865,0.3,-7.326,-50.0,-55.0,-10.0,-80.2,-64.514,-66.955,0.0,0.0,0
1277,27.799,100724.0,0.884,-0.146,-7.947,-50.0,-55.0,-10.0,-158.142,-38.146,-46.447,0.0,0.0,0
1278,27.799,100722.0,1.058,0.037,-7.527,-50.0,-55.0,-10.0,-70.678,127.441,-53.71,0.0,0.0,0
1279,27.799,100727.0,0.808,-0.166,-7.548,-50.0,-55.0,-10.0,-65.063,159.79,-59.936,0.0,0.0,0
1280,27.799,100728.0,0.664,0.222,-7.63,-50.0,-55.0,-10.0,-82.092,13.183,-78.369,0.0,0.0,0
1281,27.799,100738.0,0.8,-0.093,-7.421,-50.0,-55.0,-10.0,16.418,1.953,-113.464,0.0,0.0,0
1282,27.799,100728.0,0.771,0.324,-7.867,-50.0,-55.0,-10.0,-5.615,-54.626,-109.558,0.0,0.0,0
1283,27.799,100735.0,0.542,-0.007,-8.009,-50.0,-55.0,-10.0,-52.917,12.634,-69.824,0.0,0.0,0
1284,27.799,100732.0,0.806,-0.15,-8.097,-50.0,-55.0,-10.0,-105.041,-28.198,23.925,0.0,0.0,0
1285,27.799,100733.0,0.699,-0.267,-8.474,-50.0,-55.0,-10.0,-164.855,-35.949,19.653,0.0,0.0,0
1286,27.799,100737.0,1.166,-0.41,-8.437,-50.0,-55.0,-10.0,-174.377,-166.381,48.461,0.0,0.0,0
1287,27.799,100735.0,0.986,-0.347,-7.841,-50.0,-55.0,-10.0,-162.17,13.671,63.293,0.0,0.0,0
1288,27.799,100738.0,0.933,-0.441,-6.33,-50.0,-55.0,-10.0,-244.75,-81.848,87.036,0.0,0.0,0
1289,27.799,100740.0,0.398,-0.535,-3.722,-50.0,-55.0,-10.0,-151.306,37.17,31.677,0.0,0.0,0
1290,27.799,100742.0,-0.001,-0.925,-1.285,-50.0,-55.0,-10.0,-137.207,117.736,92.712,0.0,0.0,0
1291,27.799,100740.0,0.201,-1.388,-0.339,-50.0,-55.0,-10.0,-377.319,-68.664,13.732,0.0,0.0,0
1292,27.799,100744.0,-1.072,-0.609,-6.175,-50.0,-55.0,-10.0,549.926,-113.769,175.537,0.0,0.0,0
1293,27.799,100754.0,0.181,0.746,-15.999,-50.0,-55.0,-10.0,865.112,254.76,99.121,0.0,0.0,0
1294,27.799,100758.0,0.0,0.773,-12.267,-50.0,-55.0,-10.0,-61.401,-127.014,35.644,0.0,0.0,0
1295,27.799,100758.0,0.648,1.068,-10.781,-50.0,-55.0,-10.0,109.985,113.769,-9.582,0.0,0.0,0
1296,27.799,100755.0,0.152,1.585,-11.88,-50.0,-55.0,-10.0,37.719,2.075,55.48,0.0,0.0,0
1297,27.799,100761.0,0.679,2.333,-13.066,-50.0,-55.0,-10.0,94.97,13.549,44.189,0.0,0.0,0
1298,27.799,100763.0,0.523,2.873,-11.488,-50.0,-55.0,-10.0,46.203,-185.852,29.296,0.0,0.0,0
1299,27.799,100759.0,0.507,2.406,-8.947,-50.0,-55.0,-10.0,-182.556,-140.441,-16.784,0.0,0.0,0
1300,27.799,100758.0,0.113,1.263,-6.505,-50.0,-55.0,-10.0,-195.739,-119.079,-109.924,0.0,0.0,0
1301,27.799,100755.0,0.617,-0.091,-4.4,-50.0,-55.0,-10.0,-53.833,-97.717,-62.011,0.0,0.0,0
1302,27.799,100759.0,0.552,-0.414,-4.023,-50.0,-55.0,-10.0,-90.82,-11.84,-76.171,0.0,0.0,0
1303,27.799,100752.0,0.255,-0.679,-5.437,-50.0,-55.0,-10.0,-345.764,-20.141,-69.335,0.0,0.0,0
1304,27.899,100759.0,0.814,-0.011,-6.908,-50.0,-55.0,-10.0,65.795,124.023,6.652,0.0,0.0,0
1305,27.899,100762.0,0.296,0.792,-8.189,-50.0,-55.0,-10.0,162.536,67.626,67.443,0.0,0.0,0
1306,27.899,100760.0,0.291,0.777,-7.677,-50.0,-55.0,-10.0,-61.462,6.225,30.09,0.0,0.0,0
1307,27.899,100763.0,0.492,0.511,-7.703,-50.0,-55.0,-10.0,-94.543,-5.615,26.611,0.0,0.0,0
1308,27.899,100766.0,0.029,0.816,-8.281,-50.0,-55.0,-10.0,154.235,33.325,78.674,0.0,0.0,0
1309,27.899,100769.0,0.281,1.05,-8.218,-50.0,-55.0,-10.0,11.291,-67.504,59.326,0.0,0.0,0
1310,27.899,100768.0,0.691,1.007,-8.123,-50.0,-55.0,-10.0,-192.077,-27.099,3.845,0.0,0.0,0
1311,27.899,100765.0,0.607,0.804,-8.019,-50.0,-55.0,-10.0,-126.708,27.832,7.507,0.0,0.0,0
1312,27.899,100764.0,0.417,0.484,-7.533,-50.0,-55.0,-10.0,-159.484,-83.068,14.282,0.0,0.0,0
1313,27.899,100766.0,0.718,0.5,-7.351,-50.0,-55.0,-10.0,-175.17,-91.796,-41.32,0.0,0.0,0
1314,27.899,100767.0,0.486,0.474,-7.443,-50.0,-55.0,-10.0,-222.778,-9.765,-40.954,0.0,0.0,0
1315,27.899,100775.0,0.853,0.224,-7.947,-50.0,-55.0,-10.0,-138.0,-14.892,-30.151,0.0,0.0,0
1316,27.899,100772.0,0.777,-0.427,-7.798,-50.0,-55.0,-10.0,-155.029,-30.09,-27.832,0.0,0.0,0
1317,27.899,100773.0,0.626,-0.421,-8.136,-50.0,-55.0,-10.0,-241.149,-58.41,-23.071,0.0,0.0,0
1318,27.899,100778.0,1.046,-0.65,-8.007,-50.0,-55.0,-10.0,-149.78,-56.518,-76.171,0.0,0.0,0
1319,27.899,100775.0,0.884,-0.849,-7.33,-50.0,-55.0,-10.0,-258.605,26.977,-38.391,0.0,0.0,0
1320,27.899,100786.0,0.839,-1.072,-7.531,-50.0,-55.0,-10.0,-199.096,136.962,-5.615,0.0,0.0,0
1321,27.899,100779.0,0.501,-1.31,-7.802,-50.0,-55.0,-10.0,-167.541,105.163,-57.25,0.0,0.0,0
1322,27.899,100778.0,0.32,-1.492,-7.75,-50.0,-55.0,-10.0,-43.579,106.445,-57.556,0.0,0.0,0
1323,27.899,100783.0,0.23,-1.156,-7.742,-50.0,-55.0,-10.0,23.315,65.673,-35.583,0.0,0.0,0
1324,27.899,100777.0,0.111,-1.359,-7.861,-50.0,-55.0,-10.0,78.308,10.864,1.586,0.0,0.0,0
1325,27.899,100784.0,0.144,-1.177,-7.855,-50.0,-55.0,-10.0,23.437,15.38,-13.244,0.0,0.0,0
1326,27.899,100787.0,-0.128,-1.226,-8.046,-50.0,-55.0,-10.0,-21.423,-17.272,-21.484,0.0,0.0,0
1327,27.899,100790.0,0.123,-1.062,-7.738,-50.0,-55.0,-10.0,-50.964,-57.067,-24.719,0.0,0.0,0
1328,27.899,100792.0,0.238,-1.298,-7.597,-50.0,-55.0,-10.0,-54.504,-32.47,11.474,0.0,0.0,0
1329,27.899,100791.0,0.078,-0.875,-8.007,-50.0,-55.0,-10.0,-15.38,11.596,5.004,0.0,0.0,0
1330,27.899,100792.0,0.214,-1.113,-7.837,-50.0,-55.0,-10.0,1.953,-37.719,-35.156,0.0,0.0,0
1331,27.899,100794.0,0.328,-1.027,-7.88,-50.0,-55.0,-10.0,-23.559,3.54,-13.427,0.0,0.0,0
1332,27.899,100801.0,0.226,-0.958,-7.943,-50.0,-55.0,-10.0,17.211,-16.479,-22.827,0.0,0.0,0
1333,27.899,100795.0,0.156,-0.939,-7.697,-50.0,-55.0,-10.0,-50.415,-15.93,1.159,0.0,0.0,0
1334,27.899,100800.0,0.283,-1.064,-7.656,-50.0,-55.0,-10.0,-8.178,-10.192,-17.7,0.0,0.0,0
1335,27.899,100794.0,0.269,-0.847,-7.744,-50.0,-55.0,-10.0,-15.38,-30.761,-4.272,0.0,0.0,0
1336,27.899,100798.0,0.152,-0.818,-7.914,-50.0,-55.0,-10.0,-19.226,7.812,18.798,0.0,0.0,0
1337,27.899,100803.0,0.214,-1.011,-7.728,-50.0,-55.0,-10.0,23.01,-35.034,10.681,0.0,0.0,0
1338,27.899,100810.0,0.271,-0.634,-7.89,-50.0,-55.0,-10.0,17.822,-9.155,18.676,0.0,0.0,0
1339,27.899,100811.0,0.291,-0.72,-8.062,-50.0,-55.0,-10.0,3.54,1.464,32.531,0.0,0.0,0
1340,27.899,100810.0,0.328,-0.728,-7.921,-50.0,-55.0,-10.0,27.221,-12.451,15.014,0.0,0.0,0
1341,27.899,100812.0,0.332,-0.662,-7.933,-50.0,-55.0,-10.0,11.474,-13.916,-8.422,0.0,0.0,0
1342,27.899,100801.0,0.242,-0.373,-7.98,-50.0,-55.0,-10.0,33.508,-4.882,10.498,0.0,0.0,0
1343,27.899,100810.0,0.351,-0.486,-7.8,-50.0,-55.0,-10.0,-75.744,-0.732,22.155,0.0,0.0,0
1344,27.899,100811.0,0.375,-0.406,-7.82,-50.0,-55.0,-10.0,-37.048,-6.042,0.915,0.0,0.0,0
1345,27.899,100810.0,0.326,-0.259,-7.968,-50.0,-55.0,-10.0,-63.842,-42.541,1.953,0.0,0.0,0
1346,27.899,100817.0,0.314,-0.414,-8.085,-50.0,-55.0,-10.0,-83.374,-55.236,-19.348,0.0,0.0,0
1347,27.899,100812.0,0.464,-0.66,-7.953,-50.0,-55.0,-10.0,-121.093,-21.118,-26.489,0.0,0.0,0
1348,27.899,100820.0,0.357,-0.65,-7.9,-50.0,-55.0,-10.0,-89.294,-51.208,-53.588,0.0,0.0,0
1349,27.899,100817.0,0.48,-0.681,-7.81,-50.0,-55.0,-10.0,-113.281,-64.392,-33.02,0.0,0.0,0
1350,27.899,100814.0,0.46,-0.869,-7.816,-50.0,-55.0,-10.0,-120.178,-36.254,-30.395,0.0,0.0,0
1351,27.899,100820.0,0.63,-1.078,-7.638,-50.0,-55.0,-10.0,-91.491,-52.917,-46.875,0.0,0.0,0
1352,27.899,100818.0,0.671,-1.175,-8.0,-50.0,-55.0,-10.0,-86.73,-43.701,4.638,0.0,0.0,0
1353,27.899,100821.0,0.591,-0.939,-7.953,-50.0,-55.0,-10.0,-5.432,12.634,4.333,0.0,0.0,0
1354,27.899,100823.0,0.615,-1.062,-7.732,-50.0,-55.0,-10.0,-21.24,31.311,-6.042,0.0,0.0,0
1355,27.899,100828.0,0.617,-0.933,-8.302,-50.0,-55.0,-10.0,43.029,50.109,-0.976,0.0,0.0,0
1356,27.899,100826.0,0.595,-0.939,-8.589,-50.0,-55.0,-10.0,9.704,-40.466,-0.244,0.0,0.0,0
1357,27.899,100830.0,0.583,-1.083,-8.529,-50.0,-55.0,-10.0,23.62,9.216,-30.578,0.0,0.0,0
1358,27.899,100831.0,0.833,-1.001,-8.804,-50.0,-55.0,-10.0,6.286,-65.673,-45.959,0.0,0.0,0
1359,27.899,100831.0,0.705,-0.916,-8.666,-50.0,-55.0,-10.0,-92.59,-30.029,-61.218,0.0,0.0,0
1360,27.899,100838.0,0.72,-1.011,-8.142,-50.0,-55.0,-10.0,-115.234,-61.096,-10.925,0.0,0.0,0
1361,27.899,100832.0,0.607,-0.888,-7.937,-50.0,-55.0,-10.0,-73.059,-33.02,12.634,0.0,0.0,0
1362,27.899,100831.0,0.671,-0.99,-8.013,-50.0,-55.0,-10.0,10.925,12.329,10.742,0.0,0.0,0
1363,27.899,100835.0,0.599,-0.992,-7.894,-50.0,-55.0,-10.0,0.183,41.992,37.902,0.0,0.0,0
1364,27.899,100839.0,0.564,-0.824,-8.474,-50.0,-55.0,-10.0,74.157,55.847,43.212,0.0,0.0,0
1365,27.899,100834.0,0.564,-0.519,-8.503,-50.0,-55.0,-10.0,-57.312,58.105,-12.695,0.0,0.0,0
1366,27.899,100836.0,0.347,-0.73,-8.564,-50.0,-55.0,-10.0,9.033,45.959,13.305,0.0,0.0,0
1367,27.899,100836.0,0.312,-0.695,-8.662,-50.0,-55.0,-10.0,111.145,51.696,14.038,0.0,0.0,0
1368,27.899,100836.0,0.38,-0.628,-8.777,-50.0,-55.0,-10.0,30.09,2.014,43.09,0.0,0.0,0
1369,27.899,100837.0,1.171,0.068,-8.898,-50.0,-55.0,-10.0,-113.037,-189.392,177.001,0.0,0.0,0
1370,27.899,100837.0,0.009,-0.523,-8.322,-50.0,-55.0,-10.0,-21.301,174.621,-137.878,0.0,0.0,0
1371,27.899,100836.0,-0.046,-0.986,-8.25,-50.0,-55.0,-10.0,-167.785,167.724,43.09,0.0,0.0,0
1372,27.899,100843.0,-0.662,-1.349,-9.912,-50.0,-55.0,-10.0,85.693,70.617,146.484,0.0,0.0,0
1373,27.899,100832.0,0.896,-0.378,-9.541,-50.0,-55.0,-10.0,324.584,-139.16,204.284,0.0,0.0,0
1374,27.899,100834.0,-0.078,0.101,-8.521,-50.0,-55.0,-10.0,-172.302,22.094,129.455,0.0,0.0,0
1375,27.899,100834.0,-0.099,-0.212,-8.812,-50.0,-55.0,-10.0,-25.512,211.853,4.821,0.0,0.0,0
1376,27.899,100844.0,-0.302,-0.154,-8.431,-50.0,-55.0,-10.0,-127.441,-148.681,-10.375,0.0,0.0,0
1377,27.899,100844.0,-0.019,-0.445,-8.33,-50.0,-55.0,-10.0,-97.595,56.64,-13.244,0.0,0.0,0
