No,Temperature,Pressure,accelX,accelY,accelZ,magX,magY,magZ,gyroX,gryoY,gyroZ,gps_latitude,gps_longtitude,gps_time
1,27.1,100727.0,0.075,0.002,-0.999,-50.0,-55.0,-10.0,-0.061,-5.126,0.976,0.0,0.0,0
2,27.1,100733.0,0.066,0.007,-1.005,-50.0,-55.0,-10.0,0.61,-4.638,2.746,0.0,0.0,0
3,27.2,100732.0,0.082,0.031,-0.996,-50.0,-55.0,-10.0,0.61,-12.756,-3.173,0.0,0.0,0
4,27.2,100734.0,0.086,0.028,-0.975,-50.0,-55.0,-10.0,4.76,-9.582,3.356,0.0,0.0,0
5,27.2,100737.0,0.142,0.037,-0.971,-50.0,-55.0,-10.0,-6.835,-5.981,0.0,0.0,0.0,0
6,27.2,100735.0,0.121,0.038,-0.994,-50.0,-55.0,-10.0,-11.352,5.859,1.281,0.0,0.0,0
7,27.2,100735.0,0.116,0.042,-1.001,-50.0,-55.0,-10.0,-5.493,-3.662,-3.54,0.0,0.0,0
8,27.2,100742.0,0.125,0.023,-0.986,-50.0,-55.0,-10.0,-10.07,10.07,-0.915,0.0,0.0,0
9,27.2,100739.0,0.115,0.009,-1.015,-50.0,-55.0,-10.0,-4.394,2.99,-5.859,0.0,0.0,0
10,27.2,100739.0,0.12,0.004,-0.998,-50.0,-55.0,-10.0,-3.479,7.873,-2.929,0.0,0.0,0
11,27.2,100740.0,0.11,-0.043,-0.967,-50.0,-55.0,-10.0,-15.625,8.605,-0.305,0.0,0.0,0
12,27.2,100734.0,0.083,0.011,-1.03,-50.0,-55.0,-10.0,0.305,-2.502,9.033,0.0,0.0,0
13,27.2,100737.0,0.064,-0.028,-0.957,-50.0,-55.0,-10.0,-19.47,12.451,18.554,0.0,0.0,0
14,27.2,100741.0,0.028,-0.049,-0.986,-50.0,-55.0,-10.0,-13.122,7.019,14.099,0.0,0.0,0
15,27.299,100734.0,0.041,-0.038,-0.937,-50.0,-55.0,-10.0,-14.343,7.812,32.409,0.0,0.0,0
16,27.299,100743.0,0.092,-0.052,-0.964,-50.0,-55.0,-10.0,-7.263,2.807,47.302,0.0,0.0,0
17,27.299,100738.0,0.016,-0.058,-0.973,-50.0,-55.0,-10.0,-15.808,18.493,63.659,0.0,0.0,0
18,27.299,100746.0,0.033,-0.011,-1.067,-50.0,-55.0,-10.0,12.268,2.197,71.655,0.0,0.0,0
19,27.299,100740.0,0.0,-0.028,-1.014,-50.0,-55.0,-10.0,-11.413,-2.99,65.307,0.0,0.0,0
20,27.299,100741.0,-0.024,-0.03,-0.991,-50.0,-55.0,-10.0,-4.272,4.211,56.457,0.0,0.0,0
21,27.299,100738.0,0.012,-0.036,-0.971,-50.0,-55.0,-10.0,6.225,-2.746,47.119,0.0,0.0,0
22,27.299,100732.0,-0.01,-0.031,-1.013,-50.0,-55.0,-10.0,-0.915,-4.272,40.771,0.0,0.0,0
23,27.299,100736.0,0.024,-0.089,-0.961,-50.0,-55.0,-10.0,-15.563,7.69,32.836,0.0,0.0,0
24,27.299,100744.0,0.036,-0.068,-0.947,-50.0,-55.0,-10.0,-0.549,11.779,33.081,0.0,0.0,0
25,27.299,100742.0,0.041,-0.027,-1.0,-50.0,-55.0,-10.0,-12.145,-1.953,49.133,0.0,0.0,0
26,27.299,100740.0,0.018,-0.025,-0.979,-50.0,-55.0,-10.0,-26.428,1.586,48.095,0.0,0.0,0
27,27.299,100740.0,0.081,-0.111,-0.953,-50.0,-55.0,-10.0,-21.423,-4.699,32.531,0.0,0.0,0
28,27.299,100738.0,0.023,-0.017,-1.101,-50.0,-55.0,-10.0,37.414,-22.521,36.193,0.0,0.0,0
29,27.299,100741.0,0.069,-0.001,-0.995,-50.0,-55.0,-10.0,-16.418,28.808,10.07,0.0,0.0,0
30,27.299,100739.0,0.014,0.013,-1.048,-50.0,-55.0,-10.0,-4.15,12.023,23.193,0.0,0.0,0
31,27.299,100742.0,0.081,0.0,-0.952,-50.0,-55.0,-10.0,-6.774,9.094,22.644,0.0,0.0,0
32,27.299,100736.0,0.058,0.041,-0.941,-50.0,-55.0,-10.0,-22.155,15.686,16.113,0.0,0.0,0
33,27.299,100738.0,0.044,0.048,-0.999,-50.0,-55.0,-10.0,4.089,-11.413,13.0,0.0,0.0,0
34,27.299,100732.0,-0.004,-0.047,-0.965,-50.0,-55.0,-10.0,-19.958,-1.403,8.483,0.0,0.0,0
35,27.299,100731.0,-0.076,-0.009,-1.083,-50.0,-55.0,-10.0,17.761,-27.893,-1.403,0.0,0.0,0
36,27.299,100735.0,-0.041,-0.163,-0.938,-50.0,-55.0,-10.0,-24.475,26.245,-4.333,0.0,0.0,0
37,27.299,100733.0,-0.022,-0.105,-0.96,-50.0,-55.0,-10.0,2.746,-5.31,-16.967,0.0,0.0,0
38,27.299,100736.0,0.0,-0.11,-0.942,-50.0,-55.0,-10.0,-10.437,9.216,-7.69,0.0,0.0,0
39,27.299,100730.0,-0.031,-0.068,-0.971,-50.0,-55.0,-10.0,4.821,-1.708,-13.549,0.0,0.0,0
40,27.299,100737.0,-0.068,-0.026,-0.965,-50.0,-55.0,-10.0,-9.033,-0.732,-4.089,0.0,0.0,0
41,27.299,100738.0,-0.178,-0.082,-1.019,-50.0,-55.0,-10.0,2.319,-9.521,15.747,0.0,0.0,0
42,27.299,100736.0,0.073,-0.062,-1.01,-50.0,-55.0,-10.0,-10.864,0.244,0.061,0.0,0.0,0
43,27.299,100738.0,-0.02,-0.075,-1.019,-50.0,-55.0,-10.0,2.807,-8.3,-16.906,0.0,0.0,0
44,27.299,100734.0,-0.076,-0.015,-1.031,-50.0,-55.0,-10.0,-2.929,-17.15,-20.568,0.0,0.0,0
45,27.299,100730.0,-0.05,-0.045,-1.018,-50.0,-55.0,-10.0,-14.282,11.352,-32.287,0.0,0.0,0
46,27.299,100731.0,-0.053,-0.04,-1.015,-50.0,-55.0,-10.0,-2.197,-3.967,-29.113,0.0,0.0,0
47,27.299,100735.0,-0.024,-0.05,-0.975,-50.0,-55.0,-10.0,-1.403,-0.671,-30.334,0.0,0.0,0
48,27.299,100738.0,0.017,-0.041,-0.976,-50.0,-55.0,-10.0,0.671,2.624,-20.141,0.0,0.0,0
49,27.299,100734.0,0.013,-0.054,-0.929,-50.0,-55.0,-10.0,-2.441,9.826,-14.526,0.0,0.0,0
50,27.299,100741.0,0.056,-0.049,-0.98,-50.0,-55.0,-10.0,-8.056,1.586,-4.943,0.0,0.0,0
51,27.299,100734.0,0.09,-0.069,-0.966,-50.0,-55.0,-10.0,-21.301,6.53,4.089,0.0,0.0,0
52,27.299,100734.0,0.038,-0.066,-1.006,-50.0,-55.0,-10.0,2.563,-11.352,8.422,0.0,0.0,0
53,27.299,100742.0,-0.062,0.009,-1.123,-50.0,-55.0,-10.0,5.859,-13.122,21.728,0.0,0.0,0
54,27.299,100740.0,-0.036,-0.063,-0.974,-50.0,-55.0,-10.0,-13.549,-19.897,-13.549,0.0,0.0,0
55,27.299,100740.0,-0.081,-0.114,-0.955,-50.0,-55.0,-10.0,-6.53,0.305,1.159,0.0,0.0,0
56,27.299,100735.0,0.0,-0.093,-0.93,-50.0,-55.0,-10.0,16.235,-22.949,-31.127,0.0,0.0,0
57,27.299,100741.0,0.006,-0.124,-0.916,-50.0,-55.0,-10.0,-17.517,8.178,-18.92,0.0,0.0,0
58,27.299,100738.0,-0.025,-0.125,-0.95,-50.0,-55.0,-10.0,-10.864,-5.187,-9.826,0.0,0.0,0
59,27.299,100747.0,-0.05,-0.113,-1.011,-50.0,-55.0,-10.0,-7.019,-13.732,-12.634,0.0,0.0,0
60,27.299,100742.0,-0.005,-0.04,-1.019,-50.0,-55.0,-10.0,-17.456,-2.929,-11.169,0.0,0.0,0
61,27.299,100739.0,0.026,0.056,-1.139,-50.0,-55.0,-10.0,15.869,-5.615,-25.878,0.0,0.0,0
62,27.299,100741.0,0.058,-0.09,-0.967,-50.0,-55.0,-10.0,-2.868,21.789,-32.348,0.0,0.0,0
63,27.299,100740.0,-0.033,-0.026,-1.083,-50.0,-55.0,-10.0,9.765,-8.483,-31.738,0.0,0.0,0
64,27.299,100738.0,0.0,-0.075,-0.925,-50.0,-55.0,-10.0,-12.39,-0.061,-21.911,0.0,0.0,0
65,27.299,100741.0,0.0,-0.068,-0.964,-50.0,-55.0,-10.0,1.281,1.22,-14.465,0.0,0.0,0
66,27.299,100738.0,0.031,-0.043,-0.987,-50.0,-55.0,-10.0,-9.887,-9.826,-2.929,0.0,0.0,0
67,27.299,100746.0,0.066,-0.08,-0.977,-50.0,-55.0,-10.0,-20.568,2.929,5.92,0.0,0.0,0
68,27.299,100741.0,0.066,-0.136,-0.954,-50.0,-55.0,-10.0,-21.24,6.286,11.84,0.0,0.0,0
69,27.299,100736.0,0.021,-0.049,-1.008,-50.0,-55.0,-10.0,-0.549,4.638,30.151,0.0,0.0,0
70,27.299,100741.0,0.117,-0.044,-1.04,-50.0,-55.0,-10.0,16.784,-25.329,23.62,0.0,0.0,0
71,27.299,100738.0,-0.001,0.0,-1.115,-50.0,-55.0,-10.0,19.287,14.465,-5.798,0.0,0.0,0
72,27.299,100737.0,0.007,-0.018,-0.988,-50.0,-55.0,-10.0,-7.141,-4.333,-10.62,0.0,0.0,0
73,27.299,100738.0,0.022,-0.105,-0.911,-50.0,-55.0,-10.0,-20.751,11.352,-2.624,0.0,0.0,0
74,27.299,100740.0,0.021,-0.091,-0.952,-50.0,-55.0,-10.0,-3.051,-4.333,-8.117,0.0,0.0,0
75,27.299,100746.0,-0.024,-0.092,-0.989,-50.0,-55.0,-10.0,-8.544,-6.652,-11.413,0.0,0.0,0
76,27.299,100739.0,0.051,-0.173,-0.971,-50.0,-55.0,-10.0,-27.893,-2.624,-4.15,0.0,0.0,0
77,27.299,100745.0,0.028,-0.069,-1.015,-50.0,-55.0,-10.0,-7.446,4.272,-12.573,0.0,0.0,0
78,27.299,100739.0,0.05,-0.039,-1.09,-50.0,-55.0,-10.0,5.676,9.277,-17.944,0.0,0.0,0
79,27.299,100736.0,0.001,-0.119,-0.964,-50.0,-55.0,-10.0,-3.051,-5.371,-24.536,0.0,0.0,0
80,27.299,100736.0,0.022,-0.003,-1.019,-50.0,-55.0,-10.0,25.024,-16.784,-30.151,0.0,0.0,0
81,27.299,100733.0,0.001,-0.052,-0.887,-50.0,-55.0,-10.0,-11.718,7.08,-8.911,0.0,0.0,0
82,27.299,100735.0,0.023,-0.078,-0.918,-50.0,-55.0,-10.0,-7.202,5.615,-7.812,0.0,0.0,0
83,27.299,100743.0,0.014,-0.042,-0.988,-50.0,-55.0,-10.0,-1.22,-5.859,4.089,0.0,0.0,0
84,27.299,100735.0,0.005,-0.066,-1.073,-50.0,-55.0,-10.0,-15.625,0.488,5.493,0.0,0.0,0
85,27.299,100737.0,0.032,-0.072,-1.074,-50.0,-55.0,-10.0,-16.723,5.615,20.08,0.0,0.0,0
86,27.299,100741.0,0.01,0.044,-1.116,-50.0,-55.0,-10.0,29.785,-11.474,13.488,0.0,0.0,0
87,27.299,100731.0,-0.012,-0.062,-0.976,-50.0,-55.0,-10.0,-21.667,18.066,14.221,0.0,0.0,0
88,27.299,100729.0,-0.023,0.009,-1.032,-50.0,-55.0,-10.0,4.394,-14.343,24.841,0.0,0.0,0
89,27.299,100737.0,0.025,-0.046,-0.906,-50.0,-55.0,-10.0,-23.437,-4.028,16.967,0.0,0.0,0
90,27.299,100743.0,0.039,-0.127,-0.859,-50.0,-55.0,-10.0,-31.005,10.192,11.291,0.0,0.0,0
91,27.299,100740.0,0.018,-0.143,-0.926,-50.0,-55.0,-10.0,-15.502,-12.268,2.441,0.0,0.0,0
92,27.299,100741.0,0.053,-0.137,-1.023,-50.0,-55.0,-10.0,-16.54,-1.281,-16.54,0.0,0.0,0
93,27.299,100746.0,0.017,-0.083,-1.114,-50.0,-55.0,-10.0,8.117,19.897,6.53,0.0,0.0,0
94,27.299,100730.0,0.049,-0.104,-0.989,-50.0,-55.0,-10.0,-6.774,-12.084,0.061,0.0,0.0,0
95,27.299,100739.0,0.05,-0.03,-1.0,-50.0,-55.0,-10.0,17.7,5.004,-8.544,0.0,0.0,0
96,27.299,100738.0,-0.044,-0.024,-0.909,-50.0,-55.0,-10.0,-10.742,6.652,-2.014,0.0,0.0,0
97,27.299,100732.0,-0.004,-0.089,-0.852,-50.0,-55.0,-10.0,-21.484,9.704,4.882,0.0,0.0,0
98,27.299,100740.0,-0.006,-0.044,-0.958,-50.0,-55.0,-10.0,-0.671,-19.714,18.981,0.0,0.0,0
99,27.299,100734.0,-0.01,-0.003,-1.11,-50.0,-55.0,-10.0,-12.023,3.051,24.963,0.0,0.0,0
100,27.299,100737.0,0.048,0.031,-1.146,-50.0,-55.0,-10.0,25.268,-27.526,30.273,0.0,0.0,0
101,27.299,100740.0,0.071,-0.108,-0.973,-50.0,-55.0,-10.0,-20.385,10.07,21.789,0.0,0.0,0
102,27.299,100741.0,0.01,-0.012,-1.104,-50.0,-55.0,-10.0,21.057,-1.708,16.967,0.0,0.0,0
103,27.299,100742.0,0.002,-0.005,-0.977,-50.0,-55.0,-10.0,-17.944,9.948,20.507,0.0,0.0,0
104,27.299,100737.0,-0.01,-0.074,-0.894,-50.0,-55.0,-10.0,-34.667,24.291,10.437,0.0,0.0,0
105,27.299,100730.0,-0.022,-0.091,-0.912,-50.0,-55.0,-10.0,-8.666,-18.432,5.493,0.0,0.0,0
106,27.299,100733.0,0.089,-0.111,-0.984,-50.0,-55.0,-10.0,-15.625,-0.915,-12.207,0.0,0.0,0
107,27.299,100738.0,-0.028,-0.138,-0.999,-50.0,-55.0,-10.0,-9.643,11.23,-8.178,0.0,0.0,0
108,27.299,100731.0,-0.034,-0.006,-1.11,-50.0,-55.0,-10.0,19.958,-21.911,-3.784,0.0,0.0,0
109,27.299,100738.0,0.076,-0.137,-0.913,-50.0,-55.0,-10.0,-28.991,18.615,-4.028,0.0,0.0,0
110,27.299,100740.0,-0.08,-0.016,-1.016,-50.0,-55.0,-10.0,30.944,-25.085,7.995,0.0,0.0,0
111,27.299,100742.0,0.042,-0.01,-0.91,-50.0,-55.0,-10.0,-12.207,1.892,17.761,0.0,0.0,0
112,27.299,100739.0,0.028,0.02,-1.039,-50.0,-55.0,-10.0,13.122,-4.577,10.742,0.0,0.0,0
113,27.299,100740.0,0.017,-0.032,-1.014,-50.0,-55.0,-10.0,-20.141,-5.187,16.296,0.0,0.0,0
114,27.299,100737.0,0.082,-0.115,-1.023,-50.0,-55.0,-10.0,7.873,9.338,1.77,0.0,0.0,0
115,27.299,100745.0,-0.022,-0.066,-0.939,-50.0,-55.0,-10.0,3.112,-1.953,-0.854,0.0,0.0,0
116,27.299,100748.0,0.033,-0.041,-0.97,-50.0,-55.0,-10.0,-11.291,7.568,-13.061,0.0,0.0,0
117,27.299,100742.0,0.057,-0.008,-1.015,-50.0,-55.0,-10.0,6.896,-6.53,-33.02,0.0,0.0,0
118,27.299,100733.0,0.077,0.033,-1.04,-50.0,-55.0,-10.0,-4.028,-14.343,-36.315,0.0,0.0,0
119,27.299,100734.0,0.05,-0.079,-0.974,-50.0,-55.0,-10.0,-11.779,7.69,-42.907,0.0,0.0,0
120,27.299,100738.0,-0.072,0.036,-1.091,-50.0,-55.0,-10.0,12.451,-6.164,-23.437,0.0,0.0,0
121,27.299,100736.0,0.046,-0.034,-0.922,-50.0,-55.0,-10.0,-11.413,4.516,-23.559,0.0,0.0,0
122,27.299,100742.0,-0.006,0.003,-1.008,-50.0,-55.0,-10.0,-7.69,3.662,-17.578,0.0,0.0,0
123,27.299,100740.0,0.077,-0.059,-1.006,-50.0,-55.0,-10.0,-10.437,4.15,-14.038,0.0,0.0,0
124,27.399,100743.0,0.04,-0.069,-0.996,-50.0,-55.0,-10.0,1.22,-4.333,-18.798,0.0,0.0,0
125,27.399,100741.0,0.03,-0.094,-0.944,-50.0,-55.0,-10.0,-6.958,0.915,-13.671,0.0,0.0,0
126,27.399,100740.0,0.02,-0.109,-0.929,-50.0,-55.0,-10.0,1.098,-3.662,-19.165,0.0,0.0,0
127,27.399,100742.0,0.036,-0.033,-1.016,-50.0,-55.0,-10.0,8.361,-9.582,-14.892,0.0,0.0,0
128,27.399,100737.0,0.03,-0.059,-0.985,-50.0,-55.0,-10.0,-8.666,5.798,2.441,0.0,0.0,0
129,27.399,100737.0,0.035,-0.061,-1.0,-50.0,-55.0,-10.0,-7.934,-10.314,-2.868,0.0,0.0,0
130,27.399,100742.0,0.065,-0.087,-0.962,-50.0,-55.0,-10.0,-7.69,-10.62,5.554,0.0,0.0,0
131,27.399,100745.0,0.085,-0.065,-1.011,-50.0,-55.0,-10.0,-3.173,-3.54,7.629,0.0,0.0,0
132,27.399,100738.0,0.069,-0.063,-1.006,-50.0,-55.0,-10.0,-8.483,5.004,21.24,0.0,0.0,0
133,27.399,100740.0,0.098,-0.055,-0.983,-50.0,-55.0,-10.0,-9.216,11.779,26.245,0.0,0.0,0
134,27.399,100740.0,0.104,-0.071,-0.96,-50.0,-55.0,-10.0,-17.944,27.526,18.676,0.0,0.0,0
135,27.399,100740.0,0.065,-0.096,-1.005,-50.0,-55.0,-10.0,-9.948,14.77,43.029,0.0,0.0,0
136,27.399,100742.0,0.049,-0.094,-1.002,-50.0,-55.0,-10.0,-7.507,8.728,50.598,0.0,0.0,0
137,27.399,100742.0,0.069,-0.088,-1.01,-50.0,-55.0,-10.0,-1.953,2.136,60.18,0.0,0.0,0
138,27.399,100740.0,0.048,-0.08,-1.022,-50.0,-55.0,-10.0,8.972,4.821,35.339,0.0,0.0,0
139,27.399,100744.0,-0.013,-0.092,-1.007,-50.0,-55.0,-10.0,12.573,-10.131,40.832,0.0,0.0,0
140,27.399,100737.0,-0.061,-0.088,-0.983,-50.0,-55.0,-10.0,1.892,0.976,27.648,0.0,0.0,0
141,27.399,100739.0,0.005,-0.036,-0.993,-50.0,-55.0,-10.0,14.465,-0.854,3.906,0.0,0.0,0
142,27.399,100742.0,-0.017,-0.075,-0.968,-50.0,-55.0,-10.0,-8.3,6.408,-2.441,0.0,0.0,0
143,27.399,100742.0,-0.04,-0.07,-0.952,-50.0,-55.0,-10.0,-10.07,-1.892,0.61,0.0,0.0,0
144,27.399,100740.0,-0.06,-0.025,-0.964,-50.0,-55.0,-10.0,0.549,5.554,5.737,0.0,0.0,0
145,27.399,100736.0,-0.014,-0.022,-0.992,-50.0,-55.0,-10.0,-5.615,0.488,16.357,0.0,0.0,0
146,27.399,100740.0,-0.015,-0.06,-0.994,-50.0,-55.0,-10.0,-11.291,6.042,26.062,0.0,0.0,0
147,27.399,100748.0,0.051,-0.059,-1.048,-50.0,-55.0,-10.0,4.699,-11.047,20.324,0.0,0.0,0
148,27.399,100741.0,0.069,0.059,-1.119,-50.0,-55.0,-10.0,20.507,-30.273,-2.624,0.0,0.0,0
149,27.399,100741.0,0.006,-0.018,-1.019,-50.0,-55.0,-10.0,-20.568,41.809,-2.014,0.0,0.0,0
150,27.399,100735.0,-0.012,0.011,-0.98,-50.0,-55.0,-10.0,5.798,-8.789,-2.99,0.0,0.0,0
151,27.399,100739.0,-0.027,0.021,-0.921,-50.0,-55.0,-10.0,-14.892,17.456,5.737,0.0,0.0,0
152,27.399,100740.0,0.005,0.002,-0.918,-50.0,-55.0,-10.0,-11.047,-1.281,16.784,0.0,0.0,0
153,27.399,100737.0,0.013,0.043,-1.001,-50.0,-55.0,-10.0,-4.15,-2.136,10.009,0.0,0.0,0
154,27.399,100743.0,-0.017,-0.064,-0.971,-50.0,-55.0,-10.0,-0.305,-19.714,8.544,0.0,0.0,0
155,27.399,100738.0,-0.028,0.039,-1.111,-50.0,-55.0,-10.0,26.733,-19.836,10.253,0.0,0.0,0
156,27.399,100737.0,-0.084,-0.018,-0.995,-50.0,-55.0,-10.0,-3.295,-3.417,-2.441,0.0,0.0,0
157,27.399,100737.0,-0.025,-0.067,-0.951,-50.0,-55.0,-10.0,-10.803,-3.54,-6.958,0.0,0.0,0
158,27.399,100737.0,-0.074,-0.125,-0.919,-50.0,-55.0,-10.0,-5.371,4.821,-9.46,0.0,0.0,0
159,27.399,100736.0,-0.016,-0.076,-0.979,-50.0,-55.0,-10.0,4.516,-7.263,-2.197,0.0,0.0,0
160,27.399,100740.0,0.021,-0.08,-0.963,-50.0,-55.0,-10.0,-16.174,5.737,-11.169,0.0,0.0,0
161,27.399,100734.0,0.028,-0.129,-0.997,-50.0,-55.0,-10.0,-11.047,-4.638,-7.873,0.0,0.0,0
162,27.399,100736.0,0.006,-0.081,-1.057,-50.0,-55.0,-10.0,-11.413,-12.878,-6.53,0.0,0.0,0
163,27.399,100735.0,0.089,-0.035,-1.09,-50.0,-55.0,-10.0,-4.882,5.676,-17.456,0.0,0.0,0
164,27.399,100732.0,0.015,-0.034,-0.984,-50.0,-55.0,-10.0,-10.681,-13.244,-17.761,0.0,0.0,0
165,27.399,100738.0,-0.005,-0.029,-0.996,-50.0,-55.0,-10.0,-2.319,13.61,-26.489,0.0,0.0,0
166,27.399,100742.0,-0.012,-0.014,-0.959,-50.0,-55.0,-10.0,15.136,-15.502,-20.507,0.0,0.0,0
167,27.399,100737.0,-0.009,-0.056,-0.903,-50.0,-55.0,-10.0,-29.479,12.634,-26.062,0.0,0.0,0
168,27.399,100738.0,-0.004,-0.106,-0.954,-50.0,-55.0,-10.0,-8.911,1.892,-16.418,0.0,0.0,0
169,27.399,100745.0,-0.023,-0.045,-1.031,-50.0,-55.0,-10.0,-11.901,-0.122,-0.488,0.0,0.0,0
170,27.399,100752.0,-0.044,-0.073,-1.056,-50.0,-55.0,-10.0,-22.277,14.953,15.441,0.0,0.0,0
171,27.399,100742.0,-0.054,-0.061,-1.077,-50.0,-55.0,-10.0,10.62,-12.207,20.019,0.0,0.0,0
172,27.399,100738.0,-0.036,-0.002,-0.961,-50.0,-55.0,-10.0,-9.826,-17.089,14.526,0.0,0.0,0
173,27.399,100737.0,-0.053,-0.015,-1.007,-50.0,-55.0,-10.0,4.028,-0.305,22.216,0.0,0.0,0
174,27.399,100732.0,-0.006,-0.004,-0.943,-50.0,-55.0,-10.0,8.117,-13.61,17.028,0.0,0.0,0
175,27.399,100733.0,-0.048,-0.085,-0.906,-50.0,-55.0,-10.0,-19.226,8.789,14.16,0.0,0.0,0
176,27.399,100735.0,-0.029,-0.072,-0.965,-50.0,-55.0,-10.0,1.159,-9.521,8.178,0.0,0.0,0
177,27.399,100738.0,0.015,-0.105,-0.946,-50.0,-55.0,-10.0,-31.311,3.356,1.464,0.0,0.0,0
178,27.399,100738.0,0.003,-0.08,-1.064,-50.0,-55.0,-10.0,-5.493,0.732,-10.986,0.0,0.0,0
179,27.399,100741.0,0.035,-0.05,-1.123,-50.0,-55.0,-10.0,4.821,6.591,5.187,0.0,0.0,0
180,27.399,100738.0,0.032,-0.057,-0.963,-50.0,-55.0,-10.0,-13.244,-17.761,0.793,0.0,0.0,0
181,27.399,100737.0,0.095,0.012,-1.009,-50.0,-55.0,-10.0,18.676,-6.042,-15.319,0.0,0.0,0
182,27.399,100749.0,0.038,0.005,-0.878,-50.0,-55.0,-10.0,-6.347,3.54,0.366,0.0,0.0,0
183,27.399,100738.0,0.056,-0.094,-0.841,-50.0,-55.0,-10.0,-16.601,10.681,-2.929,0.0,0.0,0
184,27.399,100738.0,0.078,-0.021,-1.004,-50.0,-55.0,-10.0,9.704,-12.695,5.859,0.0,0.0,0
185,27.399,100736.0,0.059,-0.057,-1.025,-50.0,-55.0,-10.0,-25.085,22.033,11.535,0.0,0.0,0
186,27.399,100739.0,0.035,-0.058,-1.062,-50.0,-55.0,-10.0,-10.131,-7.629,13.427,0.0,0.0,0
187,27.399,100739.0,0.034,0.039,-1.143,-50.0,-55.0,-10.0,12.756,-8.911,15.075,0.0,0.0,0
188,27.399,100740.0,-0.023,-0.05,-1.0,-50.0,-55.0,-10.0,-19.531,15.747,12.695,0.0,0.0,0
189,27.399,100739.0,0.017,0.007,-0.99,-50.0,-55.0,-10.0,13.549,-20.874,17.211,0.0,0.0,0
190,27.399,100742.0,0.072,-0.062,-0.86,-50.0,-55.0,-10.0,-20.69,1.342,5.249,0.0,0.0,0
191,27.399,100740.0,0.02,-0.082,-0.915,-50.0,-55.0,-10.0,-9.765,1.403,1.953,0.0,0.0,0
192,27.299,100741.0,0.0,-0.074,-0.965,-50.0,-55.0,-10.0,-19.165,-0.732,2.624,0.0,0.0,0
193,27.399,100741.0,0.082,-0.111,-1.014,-50.0,-55.0,-10.0,-19.531,5.859,-15.747,0.0,0.0,0
194,27.399,100735.0,-0.001,-0.106,-1.051,-50.0,-55.0,-10.0,1.953,10.437,-3.967,0.0,0.0,0
195,27.399,100736.0,0.078,-0.053,-1.018,-50.0,-55.0,-10.0,4.455,-27.16,-16.235,0.0,0.0,0
196,27.299,100738.0,0.102,-0.006,-1.041,-50.0,-55.0,-10.0,12.939,11.352,-18.676,0.0,0.0,0
197,27.399,100738.0,0.009,-0.022,-0.879,-50.0,-55.0,-10.0,-5.737,10.437,-9.887,0.0,0.0,0
198,27.399,100734.0,0.054,-0.096,-0.861,-50.0,-55.0,-10.0,-18.554,9.704,-10.681,0.0,0.0,0
199,27.299,100735.0,0.013,-0.019,-1.016,-50.0,-55.0,-10.0,-3.845,-6.286,-0.183,0.0,0.0,0
200,27.399,100743.0,0.009,-0.084,-1.024,-50.0,-55.0,-10.0,-29.174,19.042,12.939,0.0,0.0,0
201,27.299,100736.0,0.0,-0.046,-1.102,-50.0,-55.0,-10.0,13.0,-20.69,14.953,0.0,0.0,0
202,27.299,100738.0,-0.033,-0.048,-1.004,-50.0,-55.0,-10.0,-15.258,1.525,17.578,0.0,0.0,0
203,27.299,100737.0,0.0,-0.001,-1.02,-50.0,-55.0,-10.0,12.329,-9.887,19.226,0.0,0.0,0
204,27.299,100740.0,0.031,-0.046,-0.914,-50.0,-55.0,-10.0,2.441,-13.977,6.225,0.0,0.0,0
205,27.299,100740.0,0.003,-0.066,-0.888,-50.0,-55.0,-10.0,-20.629,6.896,6.042,0.0,0.0,0
206,27.299,100735.0,-0.002,-0.076,-0.949,-50.0,-55.0,-10.0,-7.69,1.708,5.187,0.0,0.0,0
207,27.399,100742.0,0.037,-0.109,-0.973,-50.0,-55.0,-10.0,-30.944,2.807,-9.216,0.0,0.0,0
208,27.299,100735.0,0.011,-0.119,-1.032,-50.0,-55.0,-10.0,-5.737,2.807,0.61,0.0,0.0,0
209,27.299,100732.0,0.114,-0.031,-1.195,-50.0,-55.0,-10.0,21.484,-13.305,-14.709,0.0,0.0,0
210,27.299,100740.0,0.055,-0.109,-0.954,-50.0,-55.0,-10.0,-16.601,10.437,-14.892,0.0,0.0,0
211,27.299,100735.0,-0.003,-0.036,-0.943,-50.0,-55.0,-10.0,17.028,-5.798,-15.014,0.0,0.0,0
212,27.299,100750.0,0.024,-0.031,-0.881,-50.0,-55.0,-10.0,-3.356,2.624,-2.014,0.0,0.0,0
213,27.299,100743.0,0.044,-0.076,-0.934,-50.0,-55.0,-10.0,-5.859,10.498,3.906,0.0,0.0,0
214,27.299,100737.0,0.044,-0.083,-1.015,-50.0,-55.0,-10.0,-15.38,-5.432,10.192,0.0,0.0,0
215,27.399,100743.0,0.002,-0.089,-1.021,-50.0,-55.0,-10.0,-25.207,5.432,20.08,0.0,0.0,0
216,27.299,100740.0,0.068,0.016,-1.137,-50.0,-55.0,-10.0,25.695,-29.174,4.028,0.0,0.0,0
217,27.299,100742.0,-0.022,-0.047,-1.036,-50.0,-55.0,-10.0,-8.239,22.216,6.958,0.0,0.0,0
218,27.299,100740.0,0.005,-0.014,-0.974,-50.0,-55.0,-10.0,25.756,-21.911,10.559,0.0,0.0,0
219,27.299,100746.0,-0.013,-0.025,-0.908,-50.0,-55.0,-10.0,-14.16,1.525,2.624,0.0,0.0,0
220,27.399,100743.0,-0.017,-0.083,-0.907,-50.0,-55.0,-10.0,-19.287,0.183,1.953,0.0,0.0,0
221,27.299,100750.0,-0.004,-0.11,-0.96,-50.0,-55.0,-10.0,-10.253,-11.108,2.563,0.0,0.0,0
222,27.399,100749.0,0.015,-0.083,-1.08,-50.0,-55.0,-10.0,-12.084,6.774,-22.216,0.0,0.0,0
223,27.399,100746.0,0.035,-0.151,-1.0,-50.0,-55.0,-10.0,-9.948,6.469,-6.835,0.0,0.0,0
224,27.399,100746.0,0.014,0.042,-1.13,-50.0,-55.0,-10.0,34.851,-24.23,-17.15,0.0,0.0,0
225,27.399,100746.0,0.122,-0.019,-1.025,-50.0,-55.0,-10.0,-3.54,21.545,-12.756,0.0,0.0,0
226,27.299,100745.0,0.023,-0.027,-0.932,-50.0,-55.0,-10.0,-6.652,4.638,-7.141,0.0,0.0,0
227,27.299,100743.0,0.043,-0.077,-0.884,-50.0,-55.0,-10.0,-13.122,7.141,-11.291,0.0,0.0,0
228,27.299,100745.0,0.034,-0.063,-0.954,-50.0,-55.0,-10.0,-4.211,-1.77,-1.159,0.0,0.0,0
229,27.399,100749.0,0.043,-0.03,-1.069,-50.0,-55.0,-10.0,-11.474,3.112,4.76,0.0,0.0,0
230,27.399,100751.0,0.016,-0.052,-1.018,-50.0,-55.0,-10.0,-28.259,2.99,8.422,0.0,0.0,0
231,27.399,100752.0,0.003,0.032,-1.158,-50.0,-55.0,-10.0,23.864,-16.784,15.747,0.0,0.0,0
232,27.399,100741.0,-0.008,-0.026,-1.056,-50.0,-55.0,-10.0,-3.845,4.699,3.417,0.0,0.0,0
233,27.299,100744.0,-0.002,-0.02,-0.952,-50.0,-55.0,-10.0,5.249,-14.099,8.85,0.0,0.0,0
234,27.399,100740.0,-0.02,-0.075,-0.849,-50.0,-55.0,-10.0,-15.991,1.892,2.868,0.0,0.0,0
235,27.299,100742.0,-0.005,-0.092,-0.911,-50.0,-55.0,-10.0,-3.784,-8.239,7.202,0.0,0.0,0
236,27.299,100741.0,0.019,-0.12,-0.981,-50.0,-55.0,-10.0,-19.104,-2.502,-0.549,0.0,0.0,0
237,27.399,100741.0,0.037,-0.1,-1.046,-50.0,-55.0,-10.0,-12.145,0.427,-25.024,0.0,0.0,0
238,27.299,100739.0,0.078,-0.109,-1.036,-50.0,-55.0,-10.0,1.342,3.967,-5.859,0.0,0.0,0
239,27.299,100744.0,0.061,-0.05,-1.018,-50.0,-55.0,-10.0,8.544,-29.907,-17.089,0.0,0.0,0
240,27.299,100739.0,0.135,0.0,-1.073,-50.0,-55.0,-10.0,10.314,8.361,-21.972,0.0,0.0,0
241,27.399,100742.0,0.062,-0.04,-0.911,-50.0,-55.0,-10.0,-8.85,2.746,-7.263,0.0,0.0,0
242,27.399,100745.0,0.074,-0.103,-0.857,-50.0,-55.0,-10.0,-18.066,11.596,-9.521,0.0,0.0,0
243,27.299,100737.0,0.068,-0.073,-0.97,-50.0,-55.0,-10.0,3.417,-6.774,-3.784,0.0,0.0,0
244,27.299,100744.0,0.084,-0.097,-1.005,-50.0,-55.0,-10.0,-18.432,10.803,0.671,0.0,0.0,0
245,27.299,100747.0,0.017,-0.128,-0.969,-50.0,-55.0,-10.0,-24.047,17.15,5.493,0.0,0.0,0
246,27.399,100747.0,0.026,-0.019,-1.134,-50.0,-55.0,-10.0,39.001,-18.981,10.803,0.0,0.0,0
247,27.399,100744.0,0.0,-0.111,-0.961,-50.0,-55.0,-10.0,-25.024,21.85,6.53,0.0,0.0,0
248,27.399,100737.0,-0.022,-0.043,-0.985,-50.0,-55.0,-10.0,13.366,-10.62,9.46,0.0,0.0,0
249,27.299,100737.0,-0.006,-0.056,-0.928,-50.0,-55.0,-10.0,-13.488,3.173,-2.197,0.0,0.0,0
250,27.399,100744.0,-0.037,-0.096,-0.922,-50.0,-55.0,-10.0,-19.165,2.197,-5.371,0.0,0.0,0
251,27.299,100745.0,-0.02,-0.097,-0.972,-50.0,-55.0,-10.0,-16.601,-7.202,-8.117,0.0,0.0,0
252,27.399,100745.0,0.0,-0.1,-1.039,-50.0,-55.0,-10.0,-25.939,-0.488,-29.235,0.0,0.0,0
253,27.399,100742.0,0.039,-0.077,-1.117,-50.0,-55.0,-10.0,15.747,-0.366,-11.84,0.0,0.0,0
254,27.399,100733.0,0.056,-0.161,-0.938,-50.0,-55.0,-10.0,-18.493,5.737,-21.057,0.0,0.0,0
255,27.299,100736.0,0.058,-0.028,-1.026,-50.0,-55.0,-10.0,28.442,-17.395,-18.31,0.0,0.0,0
256,27.399,100744.0,0.022,-0.056,-0.887,-50.0,-55.0,-10.0,-14.343,8.789,-11.169,0.0,0.0,0
257,27.399,100745.0,0.02,-0.106,-0.903,-50.0,-55.0,-10.0,-15.075,6.103,-7.751,0.0,0.0,0
258,27.399,100744.0,0.016,-0.073,-1.009,-50.0,-55.0,-10.0,-7.873,-4.333,5.432,0.0,0.0,0
259,27.399,100752.0,0.044,-0.094,-1.031,-50.0,-55.0,-10.0,-19.042,5.004,14.77,0.0,0.0,0
260,27.399,100751.0,0.05,-0.111,-1.088,-50.0,-55.0,-10.0,8.361,-12.268,14.343,0.0,0.0,0
261,27.399,100740.0,0.017,-0.107,-0.983,-50.0,-55.0,-10.0,-21.911,5.615,13.427,0.0,0.0,0
262,27.399,100736.0,-0.003,-0.063,-1.021,-50.0,-55.0,-10.0,23.071,-12.023,5.493,0.0,0.0,0
263,27.299,100736.0,-0.014,-0.061,-0.914,-50.0,-55.0,-10.0,-9.399,3.356,1.525,0.0,0.0,0
264,27.399,100740.0,-0.03,-0.123,-0.88,-50.0,-55.0,-10.0,-16.723,-4.516,4.699,0.0,0.0,0
265,27.399,100744.0,-0.037,-0.115,-0.923,-50.0,-55.0,-10.0,-13.427,2.502,1.953,0.0,0.0,0
266,27.399,100738.0,-0.006,-0.149,-0.976,-50.0,-55.0,-10.0,-17.272,1.037,-5.554,0.0,0.0,0
267,27.399,100736.0,0.001,-0.145,-1.053,-50.0,-55.0,-10.0,-1.77,-3.967,-3.967,0.0,0.0,0
268,27.399,100737.0,0.106,-0.055,-1.189,-50.0,-55.0,-10.0,26.0,5.554,-4.211,0.0,0.0,0
269,27.399,100737.0,0.075,-0.131,-0.983,-50.0,-55.0,-10.0,-6.164,12.39,-11.352,0.0,0.0,0
270,27.399,100736.0,0.045,-0.026,-1.008,-50.0,-55.0,-10.0,9.582,-10.559,-15.136,0.0,0.0,0
271,27.399,100737.0,0.044,-0.101,-0.838,-50.0,-55.0,-10.0,-26.611,10.009,-12.207,0.0,0.0,0
272,27.399,100742.0,0.025,-0.129,-0.877,-50.0,-55.0,-10.0,-6.958,-3.234,-8.85,0.0,0.0,0
273,27.399,100733.0,0.049,-0.137,-0.959,-50.0,-55.0,-10.0,-9.277,-6.713,-6.469,0.0,0.0,0
274,27.399,100742.0,0.021,-0.124,-1.027,-50.0,-55.0,-10.0,-9.46,8.422,6.591,0.0,0.0,0
275,27.399,100735.0,-0.01,-0.132,-1.072,-50.0,-55.0,-10.0,8.483,-5.187,1.159,0.0,0.0,0
276,27.399,100742.0,-0.011,-0.073,-1.067,-50.0,-55.0,-10.0,4.638,-10.314,12.878,0.0,0.0,0
277,27.399,100737.0,0.012,-0.074,-0.972,-50.0,-55.0,-10.0,6.774,-4.455,8.422,0.0,0.0,0
278,27.399,100738.0,-0.015,-0.07,-0.885,-50.0,-55.0,-10.0,-7.873,3.295,-2.563,0.0,0.0,0
279,27.399,100740.0,-0.015,-0.102,-0.881,-50.0,-55.0,-10.0,-15.319,-0.427,0.427,0.0,0.0,0
280,27.399,100735.0,-0.055,-0.111,-0.942,-50.0,-55.0,-10.0,-12.207,4.272,-1.098,0.0,0.0,0
281,27.399,100738.0,0.008,-0.139,-1.039,-50.0,-55.0,-10.0,-9.216,-6.225,-18.432,0.0,0.0,0
282,27.399,100736.0,0.032,-0.111,-1.126,-50.0,-55.0,-10.0,4.76,-3.784,-4.455,0.0,0.0,0
283,27.399,100737.0,0.095,-0.081,-1.041,-50.0,-55.0,-10.0,-7.934,-15.686,-10.925,0.0,0.0,0
284,27.399,100740.0,0.056,-0.059,-0.987,-50.0,-55.0,-10.0,4.943,3.295,-0.061,0.0,0.0,0
285,27.399,100743.0,0.05,-0.02,-0.933,-50.0,-55.0,-10.0,7.141,-8.911,-6.958,0.0,0.0,0
286,27.399,100734.0,0.009,-0.1,-0.815,-50.0,-55.0,-10.0,-29.357,20.141,-5.798,0.0,0.0,0
287,27.399,100740.0,0.0,-0.14,-0.888,-50.0,-55.0,-10.0,2.99,-19.775,-0.671,0.0,0.0,0
288,27.399,100738.0,0.043,-0.122,-1.067,-50.0,-55.0,-10.0,1.525,4.394,11.108,0.0,0.0,0
289,27.399,100737.0,0.061,-0.095,-1.113,-50.0,-55.0,-10.0,1.22,7.812,4.333,0.0,0.0,0
290,27.399,100747.0,0.03,0.051,-1.18,-50.0,-55.0,-10.0,25.268,-6.469,11.108,0.0,0.0,0
291,27.399,100737.0,-0.056,-0.07,-0.977,-50.0,-55.0,-10.0,-18.737,12.023,7.263,0.0,0.0,0
292,27.399,100735.0,-0.036,-0.035,-0.921,-50.0,-55.0,-10.0,9.948,-24.291,22.033,0.0,0.0,0
293,27.399,100742.0,0.009,-0.057,-0.852,-50.0,-55.0,-10.0,-18.371,-5.737,3.662,0.0,0.0,0
294,27.399,100738.0,-0.013,-0.098,-0.927,-50.0,-55.0,-10.0,-8.483,2.807,3.784,0.0,0.0,0
295,27.399,100742.0,0.014,-0.098,-1.032,-50.0,-55.0,-10.0,-19.592,1.892,-8.972,0.0,0.0,0
296,27.399,100742.0,0.029,-0.051,-1.104,-50.0,-55.0,-10.0,-2.685,9.399,-8.117,0.0,0.0,0
297,27.399,100742.0,0.014,-0.031,-1.057,-50.0,-55.0,-10.0,-2.563,-27.709,-14.587,0.0,0.0,0
298,27.399,100739.0,0.124,-0.077,-1.009,-50.0,-55.0,-10.0,15.869,5.187,4.638,0.0,0.0,0
299,27.399,100747.0,0.049,0.005,-0.912,-50.0,-55.0,-10.0,10.62,-0.244,-7.629,0.0,0.0,0
300,27.399,100743.0,0.024,-0.097,-0.811,-50.0,-55.0,-10.0,-28.442,22.277,-11.535,0.0,0.0,0
301,27.399,100742.0,0.065,-0.074,-0.979,-50.0,-55.0,-10.0,14.282,-22.216,-1.159,0.0,0.0,0
302,27.399,100735.0,-0.002,-0.056,-1.064,-50.0,-55.0,-10.0,-26.733,26.428,13.183,0.0,0.0,0
303,27.399,100728.0,0.0,-0.131,-1.083,-50.0,-55.0,-10.0,4.455,-17.639,12.023,0.0,0.0,0
304,27.399,100737.0,-0.05,-0.008,-1.007,-50.0,-55.0,-10.0,-9.277,-9.46,11.718,0.0,0.0,0
305,27.399,100729.0,-0.018,-0.049,-1.035,-50.0,-55.0,-10.0,15.075,-3.479,17.028,0.0,0.0,0
306,27.399,100744.0,0.001,0.025,-0.922,-50.0,-55.0,-10.0,-1.098,-16.357,9.338,0.0,0.0,0
307,27.399,100738.0,0.0,-0.067,-0.843,-50.0,-55.0,-10.0,-34.118,6.042,4.76,0.0,0.0,0
308,27.399,100743.0,-0.034,-0.071,-0.941,-50.0,-55.0,-10.0,-5.554,1.281,4.821,0.0,0.0,0
309,27.399,100744.0,0.041,-0.116,-0.972,-50.0,-55.0,-10.0,-23.986,-9.155,-9.399,0.0,0.0,0
310,27.399,100738.0,0.01,-0.051,-1.143,-50.0,-55.0,-10.0,7.446,2.258,-1.77,0.0,0.0,0
311,27.399,100739.0,0.076,-0.054,-1.042,-50.0,-55.0,-10.0,-0.61,-10.559,-10.253,0.0,0.0,0
312,27.399,100741.0,0.135,-0.035,-1.028,-50.0,-55.0,-10.0,20.69,-1.098,-10.742,0.0,0.0,0
313,27.399,100738.0,0.019,0.008,-0.9,-50.0,-55.0,-10.0,3.417,5.432,-7.446,0.0,0.0,0
314,27.399,100740.0,0.017,-0.075,-0.875,-50.0,-55.0,-10.0,-16.235,4.028,-5.737,0.0,0.0,0
315,27.399,100742.0,0.052,-0.077,-0.967,-50.0,-55.0,-10.0,-14.16,-3.417,2.197,0.0,0.0,0
316,27.399,100740.0,0.041,-0.09,-1.032,-50.0,-55.0,-10.0,-20.996,9.46,6.774,0.0,0.0,0
317,27.399,100736.0,0.082,-0.045,-1.084,-50.0,-55.0,-10.0,-1.464,-15.441,1.098,0.0,0.0,0
318,27.399,100740.0,-0.028,-0.049,-1.041,-50.0,-55.0,-10.0,-14.465,6.408,17.639,0.0,0.0,0
319,27.399,100742.0,-0.022,-0.019,-1.043,-50.0,-55.0,-10.0,28.198,-16.174,2.929,0.0,0.0,0
320,27.399,100743.0,-0.013,-0.013,-0.961,-50.0,-55.0,-10.0,-5.187,-5.676,3.662,0.0,0.0,0
321,27.399,100739.0,0.0,-0.097,-0.868,-50.0,-55.0,-10.0,-24.23,7.385,10.314,0.0,0.0,0
322,27.399,100741.0,0.027,-0.087,-0.954,-50.0,-55.0,-10.0,1.281,-12.573,1.098,0.0,0.0,0
323,27.399,100740.0,-0.023,-0.099,-0.981,-50.0,-55.0,-10.0,-34.362,18.859,-4.394,0.0,0.0,0
324,27.399,100745.0,0.015,-0.12,-1.033,-50.0,-55.0,-10.0,3.051,3.784,-3.54,0.0,0.0,0
325,27.399,100743.0,0.068,-0.05,-1.089,-50.0,-55.0,-10.0,-0.671,-4.15,-10.925,0.0,0.0,0
326,27.399,100742.0,0.08,-0.089,-0.978,-50.0,-55.0,-10.0,10.192,6.042,-14.099,0.0,0.0,0
327,27.399,100740.0,0.018,0.013,-0.939,-50.0,-55.0,-10.0,20.08,-7.141,-11.657,0.0,0.0,0
328,27.399,100740.0,-0.012,-0.038,-0.882,-50.0,-55.0,-10.0,-14.404,7.324,-1.403,0.0,0.0,0
329,27.399,100744.0,0.03,-0.071,-0.918,-50.0,-55.0,-10.0,-2.99,-9.277,6.286,0.0,0.0,0
330,27.399,100747.0,0.062,-0.1,-0.988,-50.0,-55.0,-10.0,-19.287,-4.333,7.507,0.0,0.0,0
331,27.399,100741.0,0.02,-0.011,-1.148,-50.0,-55.0,-10.0,-9.094,-6.591,19.165,0.0,0.0,0
332,27.399,100738.0,0.0,-0.056,-1.11,-50.0,-55.0,-10.0,-5.493,1.708,21.118,0.0,0.0,0
333,27.399,100745.0,0.04,-0.058,-1.028,-50.0,-55.0,-10.0,7.202,-11.23,13.427,0.0,0.0,0
334,27.399,100740.0,0.051,0.014,-1.002,-50.0,-55.0,-10.0,12.512,-7.08,6.103,0.0,0.0,0
335,27.399,100743.0,0.019,-0.035,-0.903,-50.0,-55.0,-10.0,-22.705,7.995,0.793,0.0,0.0,0
336,27.399,100742.0,0.0,-0.062,-0.926,-50.0,-55.0,-10.0,-5.859,-4.638,2.502,0.0,0.0,0
337,27.399,100741.0,0.022,-0.086,-0.924,-50.0,-55.0,-10.0,-28.32,10.498,-0.549,0.0,0.0,0
338,27.399,100744.0,0.039,-0.095,-0.986,-50.0,-55.0,-10.0,-9.155,1.831,-18.554,0.0,0.0,0
339,27.399,100744.0,0.052,-0.013,-1.184,-50.0,-55.0,-10.0,2.929,1.77,-0.122,0.0,0.0,0
340,27.399,100739.0,0.071,-0.135,-0.937,-50.0,-55.0,-10.0,-19.958,5.31,-16.357,0.0,0.0,0
341,27.399,100744.0,0.032,-0.006,-1.031,-50.0,-55.0,-10.0,43.09,-14.282,-16.845,0.0,0.0,0
342,27.399,100744.0,-0.001,0.0,-0.95,-50.0,-55.0,-10.0,-11.474,7.019,-1.159,0.0,0.0,0
343,27.399,100743.0,0.025,-0.082,-0.856,-50.0,-55.0,-10.0,-28.625,17.944,-5.798,0.0,0.0,0
344,27.399,100739.0,-0.001,-0.11,-0.905,-50.0,-55.0,-10.0,-12.634,-10.62,-3.417,0.0,0.0,0
345,27.399,100743.0,0.0,-0.085,-1.068,-50.0,-55.0,-10.0,-2.685,-0.671,15.563,0.0,0.0,0
346,27.399,100738.0,0.024,-0.077,-1.14,-50.0,-55.0,-10.0,9.216,-15.014,11.047,0.0,0.0,0
347,27.399,100740.0,-0.023,-0.081,-1.069,-50.0,-55.0,-10.0,-8.3,-0.793,8.178,0.0,0.0,0
348,27.399,100740.0,-0.002,0.02,-1.027,-50.0,-55.0,-10.0,20.446,-9.216,6.347,0.0,0.0,0
349,27.399,100740.0,-0.026,-0.005,-0.899,-50.0,-55.0,-10.0,-17.578,-3.417,-1.892,0.0,0.0,0
350,27.399,100743.0,-0.017,-0.076,-0.837,-50.0,-55.0,-10.0,-19.348,1.464,3.234,0.0,0.0,0
351,27.399,100736.0,-0.05,-0.112,-0.875,-50.0,-55.0,-10.0,-19.592,0.244,5.493,0.0,0.0,0
352,27.399,100737.0,0.029,-0.06,-1.092,-50.0,-55.0,-10.0,-8.056,-8.422,-20.874,0.0,0.0,0
353,27.399,100740.0,0.054,-0.108,-1.107,-50.0,-55.0,-10.0,-4.394,9.338,-3.906,0.0,0.0,0
354,27.399,100741.0,0.05,-0.063,-1.042,-50.0,-55.0,-10.0,-0.427,-12.695,-9.765,0.0,0.0,0
355,27.399,100739.0,0.072,-0.036,-1.022,-50.0,-55.0,-10.0,22.338,-4.089,-11.596,0.0,0.0,0
356,27.399,100740.0,0.033,-0.01,-0.917,-50.0,-55.0,-10.0,2.197,3.967,-8.239,0.0,0.0,0
357,27.399,100742.0,0.052,-0.105,-0.824,-50.0,-55.0,-10.0,-23.803,14.16,-11.047,0.0,0.0,0
358,27.399,100742.0,0.03,-0.056,-0.96,-50.0,-55.0,-10.0,-2.38,-18.432,-7.446,0.0,0.0,0
359,27.399,100745.0,0.018,-0.118,-1.049,-50.0,-55.0,-10.0,-23.01,10.375,8.666,0.0,0.0,0
360,27.399,100744.0,0.0,-0.069,-1.137,-50.0,-55.0,-10.0,6.408,-15.747,2.38,0.0,0.0,0
361,27.399,100740.0,0.004,-0.045,-1.06,-50.0,-55.0,-10.0,-3.54,-7.141,22.216,0.0,0.0,0
362,27.399,100740.0,0.013,-0.027,-1.065,-50.0,-55.0,-10.0,9.948,-0.061,12.939,0.0,0.0,0
363,27.399,100748.0,0.019,-0.001,-0.932,-50.0,-55.0,-10.0,-10.925,-5.31,8.361,0.0,0.0,0
364,27.399,100742.0,0.003,-0.078,-0.86,-50.0,-55.0,-10.0,-29.846,9.521,7.141,0.0,0.0,0
365,27.399,100751.0,-0.001,-0.091,-0.922,-50.0,-55.0,-10.0,-11.108,-1.22,1.708,0.0,0.0,0
366,27.399,100746.0,0.017,-0.134,-0.965,-50.0,-55.0,-10.0,-41.015,10.986,-7.446,0.0,0.0,0
367,27.399,100742.0,0.02,-0.162,-1.082,-50.0,-55.0,-10.0,-2.929,2.685,-14.526,0.0,0.0,0
368,27.399,100745.0,0.005,-0.032,-1.161,-50.0,-55.0,-10.0,24.658,-17.028,-2.685,0.0,0.0,0
369,27.399,100740.0,0.09,-0.104,-1.004,-50.0,-55.0,-10.0,10.131,18.737,-8.789,0.0,0.0,0
370,27.399,100744.0,0.022,-0.057,-0.905,-50.0,-55.0,-10.0,15.319,-6.835,-13.122,0.0,0.0,0
371,27.399,100745.0,0.005,-0.106,-0.837,-50.0,-55.0,-10.0,-23.132,12.695,-5.432,0.0,0.0,0
372,27.399,100736.0,0.058,-0.168,-0.85,-50.0,-55.0,-10.0,-4.15,-6.591,-2.807,0.0,0.0,0
373,27.399,100744.0,0.018,-0.131,-1.056,-50.0,-55.0,-10.0,2.868,-10.559,-1.708,0.0,0.0,0
374,27.399,100735.0,0.0,-0.135,-1.093,-50.0,-55.0,-10.0,-11.291,9.46,16.174,0.0,0.0,0
375,27.399,100736.0,0.036,-0.079,-1.167,-50.0,-55.0,-10.0,23.437,-17.395,2.258,0.0,0.0,0
376,27.399,100735.0,-0.085,-0.052,-1.007,-50.0,-55.0,-10.0,-33.325,11.413,6.958,0.0,0.0,0
377,27.399,100736.0,-0.038,-0.043,-0.938,-50.0,-55.0,-10.0,10.986,-6.53,21.24,0.0,0.0,0
378,27.399,100739.0,-0.02,-0.046,-0.843,-50.0,-55.0,-10.0,1.953,-11.901,4.333,0.0,0.0,0
379,27.399,100735.0,-0.01,-0.081,-0.893,-50.0,-55.0,-10.0,-16.296,2.624,7.629,0.0,0.0,0
380,27.399,100735.0,0.008,-0.135,-0.911,-50.0,-55.0,-10.0,-11.291,-4.15,2.502,0.0,0.0,0
381,27.399,100739.0,0.044,-0.075,-1.041,-50.0,-55.0,-10.0,-12.512,3.356,-12.512,0.0,0.0,0
382,27.399,100740.0,0.034,-0.108,-1.122,-50.0,-55.0,-10.0,-9.155,-4.943,10.62,0.0,0.0,0
383,27.399,100743.0,0.056,-0.036,-1.128,-50.0,-55.0,-10.0,11.84,-24.291,-16.052,0.0,0.0,0
384,27.399,100737.0,0.088,-0.083,-0.978,-50.0,-55.0,-10.0,3.234,26.733,-2.136,0.0,0.0,0
385,27.399,100736.0,0.018,-0.036,-0.934,-50.0,-55.0,-10.0,15.258,-1.77,-15.197,0.0,0.0,0
386,27.399,100734.0,0.028,-0.049,-0.914,-50.0,-55.0,-10.0,-12.329,10.803,-9.643,0.0,0.0,0
387,27.399,100738.0,0.032,-0.155,-0.883,-50.0,-55.0,-10.0,-14.648,0.915,-1.22,0.0,0.0,0
388,27.399,100736.0,0.024,-0.147,-1.009,-50.0,-55.0,-10.0,-0.854,-4.699,2.136,0.0,0.0,0
389,27.399,100744.0,-0.004,-0.105,-1.09,-50.0,-55.0,-10.0,-15.563,6.896,17.578,0.0,0.0,0
390,27.399,100738.0,-0.017,-0.097,-1.132,-50.0,-55.0,-10.0,8.056,1.831,5.126,0.0,0.0,0
391,27.399,100739.0,-0.085,-0.086,-0.979,-50.0,-55.0,-10.0,-7.751,2.441,20.019,0.0,0.0,0
392,27.399,100740.0,-0.019,-0.037,-1.035,-50.0,-55.0,-10.0,23.498,-24.353,19.714,0.0,0.0,0
393,27.399,100737.0,0.0,-0.026,-0.896,-50.0,-55.0,-10.0,-10.742,-6.958,10.864,0.0,0.0,0
394,27.399,100732.0,-0.023,-0.074,-0.826,-50.0,-55.0,-10.0,-17.517,10.681,5.737,0.0,0.0,0
395,27.399,100737.0,-0.006,-0.091,-0.918,-50.0,-55.0,-10.0,-6.835,-5.676,2.258,0.0,0.0,0
396,27.399,100730.0,0.011,-0.105,-0.984,-50.0,-55.0,-10.0,-23.498,16.052,-9.216,0.0,0.0,0
397,27.399,100737.0,-0.06,-0.095,-1.129,-50.0,-55.0,-10.0,-2.563,-7.141,3.967,0.0,0.0,0
398,27.399,100735.0,0.077,-0.08,-1.212,-50.0,-55.0,-10.0,15.136,-11.23,-13.0,0.0,0.0,0
399,27.399,100733.0,0.042,-0.112,-0.972,-50.0,-55.0,-10.0,-16.723,4.821,-6.408,0.0,0.0,0
400,27.399,100742.0,0.038,-0.05,-0.947,-50.0,-55.0,-10.0,14.282,-5.554,-21.85,0.0,0.0,0
401,27.399,100734.0,0.021,-0.092,-0.833,-50.0,-55.0,-10.0,-12.084,10.742,-17.395,0.0,0.0,0
402,27.399,100740.0,-0.003,-0.109,-0.873,-50.0,-55.0,-10.0,-5.737,-3.234,0.244,0.0,0.0,0
403,27.399,100735.0,0.014,-0.117,-0.993,-50.0,-55.0,-10.0,-6.652,2.807,4.821,0.0,0.0,0
404,27.399,100734.0,0.018,-0.094,-1.107,-50.0,-55.0,-10.0,-1.953,-5.371,10.559,0.0,0.0,0
405,27.399,100739.0,0.024,-0.012,-1.183,-50.0,-55.0,-10.0,15.747,-7.324,12.207,0.0,0.0,0
406,27.399,100740.0,-0.001,-0.065,-1.026,-50.0,-55.0,-10.0,-6.53,-4.15,-1.037,0.0,0.0,0
407,27.399,100747.0,-0.027,-0.027,-0.958,-50.0,-55.0,-10.0,6.774,7.751,9.399,0.0,0.0,0
408,27.399,100733.0,-0.056,-0.072,-0.876,-50.0,-55.0,-10.0,-9.765,-5.554,-1.77,0.0,0.0,0
409,27.399,100736.0,-0.013,-0.123,-0.912,-50.0,-55.0,-10.0,-8.117,-2.258,7.812,0.0,0.0,0
410,27.399,100742.0,-0.003,-0.121,-0.999,-50.0,-55.0,-10.0,-24.169,-5.554,-8.117,0.0,0.0,0
411,27.399,100744.0,0.021,-0.104,-1.062,-50.0,-55.0,-10.0,-3.784,-1.525,-12.939,0.0,0.0,0
412,27.399,100739.0,0.06,0.003,-1.198,-50.0,-55.0,-10.0,16.296,-14.77,-10.498,0.0,0.0,0
413,27.399,100743.0,0.068,-0.103,-0.963,-50.0,-55.0,-10.0,-8.117,16.784,-13.0,0.0,0.0,0
414,27.399,100738.0,0.035,0.0,-0.992,-50.0,-55.0,-10.0,38.269,-21.362,-14.648,0.0,0.0,0
415,27.399,100744.0,0.02,-0.042,-0.858,-50.0,-55.0,-10.0,-27.77,19.653,-9.643,0.0,0.0,0
416,27.399,100740.0,0.044,-0.119,-0.899,-50.0,-55.0,-10.0,-12.573,0.61,-4.028,0.0,0.0,0
417,27.399,100747.0,0.03,-0.043,-1.111,-50.0,-55.0,-10.0,-0.793,1.708,4.516,0.0,0.0,0
418,27.399,100743.0,0.039,-0.023,-1.093,-50.0,-55.0,-10.0,-23.559,-4.577,5.493,0.0,0.0,0
419,27.399,100739.0,-0.007,-0.098,-0.948,-50.0,-55.0,-10.0,-38.269,21.728,13.61,0.0,0.0,0
420,27.399,100743.0,-0.014,0.0,-1.145,-50.0,-55.0,-10.0,44.982,-25.573,-2.929,0.0,0.0,0
421,27.399,100742.0,-0.013,-0.023,-0.943,-50.0,-55.0,-10.0,-0.976,5.31,-6.713,0.0,0.0,0
422,27.399,100741.0,-0.074,-0.115,-0.859,-50.0,-55.0,-10.0,-25.024,4.577,-5.249,0.0,0.0,0
423,27.399,100741.0,-0.028,-0.093,-0.901,-50.0,-55.0,-10.0,9.887,-10.681,-0.854,0.0,0.0,0
424,27.399,100735.0,-0.05,-0.113,-0.974,-50.0,-55.0,-10.0,-38.208,9.582,-13.0,0.0,0.0,0
425,27.399,100741.0,-0.07,-0.096,-1.124,-50.0,-55.0,-10.0,10.131,0.854,0.854,0.0,0.0,0
426,27.399,100741.0,0.071,-0.023,-1.105,-50.0,-55.0,-10.0,-8.666,-10.986,-9.826,0.0,0.0,0
427,27.399,100734.0,0.096,-0.075,-1.036,-50.0,-55.0,-10.0,10.62,10.192,-6.896,0.0,0.0,0
428,27.399,100738.0,0.026,-0.041,-0.918,-50.0,-55.0,-10.0,11.962,-17.883,-13.0,0.0,0.0,0
429,27.399,100742.0,0.01,-0.052,-0.894,-50.0,-55.0,-10.0,-26.306,10.559,-10.559,0.0,0.0,0
430,27.399,100745.0,0.04,-0.114,-0.887,-50.0,-55.0,-10.0,-15.563,-1.403,-6.042,0.0,0.0,0
431,27.399,100753.0,0.07,-0.096,-1.039,-50.0,-55.0,-10.0,-5.859,7.995,-0.427,0.0,0.0,0
432,27.399,100742.0,0.036,-0.06,-1.112,-50.0,-55.0,-10.0,-18.127,-5.676,-2.868,0.0,0.0,0
433,27.399,100743.0,0.046,-0.102,-1.146,-50.0,-55.0,-10.0,-12.084,-3.051,5.981,0.0,0.0,0
434,27.399,100748.0,-0.016,-0.095,-0.999,-50.0,-55.0,-10.0,-16.54,5.249,-1.037,0.0,0.0,0
435,27.399,100740.0,-0.054,-0.072,-0.966,-50.0,-55.0,-10.0,16.845,8.422,2.563,0.0,0.0,0
436,27.399,100736.0,-0.03,-0.076,-0.858,-50.0,-55.0,-10.0,-3.54,4.272,1.281,0.0,0.0,0
437,27.399,100734.0,0.01,-0.133,-0.914,-50.0,-55.0,-10.0,5.126,22.155,12.512,0.0,0.0,0
438,27.399,100740.0,-0.072,-0.141,-0.981,-50.0,-55.0,-10.0,-10.009,-10.437,-7.629,0.0,0.0,0
439,27.399,100734.0,-0.15,-0.028,-1.021,-50.0,-55.0,-10.0,6.286,-0.122,-10.742,0.0,0.0,0
440,27.399,100739.0,-0.028,-0.073,-1.05,-50.0,-55.0,-10.0,-7.324,-14.953,8.911,0.0,0.0,0
441,27.399,100736.0,-0.006,-0.081,-0.96,-50.0,-55.0,-10.0,2.014,-11.596,1.708,0.0,0.0,0
442,27.399,100736.0,0.052,-0.035,-1.044,-50.0,-55.0,-10.0,17.517,-4.516,-22.094,0.0,0.0,0
443,27.399,100739.0,0.271,-0.184,-1.199,-50.0,-55.0,-10.0,-7.446,49.133,-34.362,0.0,0.0,0
444,27.399,100742.0,-0.02,-0.08,-0.899,-50.0,-55.0,-10.0,-18.005,-18.249,-9.765,0.0,0.0,0
445,27.399,100743.0,0.03,-0.115,-0.908,-50.0,-55.0,-10.0,1.525,-6.713,-16.296,0.0,0.0,0
446,27.399,100742.0,0.056,-0.086,-1.074,-50.0,-55.0,-10.0,-16.296,-4.821,2.136,0.0,0.0,0
447,27.399,100746.0,0.0,-0.099,-1.104,-50.0,-55.0,-10.0,6.042,-9.582,-9.277,0.0,0.0,0
448,27.5,100740.0,-0.05,-0.066,-0.982,-50.0,-55.0,-10.0,-11.047,-7.873,-2.502,0.0,0.0,0
449,27.5,100745.0,0.009,-0.042,-1.049,-50.0,-55.0,-10.0,13.305,0.183,-13.061,0.0,0.0,0
450,27.5,100741.0,-0.012,-0.046,-0.932,-50.0,-55.0,-10.0,4.333,-0.305,-12.084,0.0,0.0,0
451,27.5,100751.0,0.0,-0.102,-0.858,-50.0,-55.0,-10.0,-11.169,-3.051,-14.343,0.0,0.0,0
452,27.5,100743.0,-0.02,-0.094,-0.895,-50.0,-55.0,-10.0,-7.385,-4.455,-6.713,0.0,0.0,0
453,27.5,100737.0,-0.015,-0.102,-0.985,-50.0,-55.0,-10.0,-21.24,-13.61,-12.695,0.0,0.0,0
454,27.5,100741.0,0.021,-0.064,-1.068,-50.0,-55.0,-10.0,-1.403,-4.455,-17.517,0.0,0.0,0
455,27.5,100738.0,0.046,0.08,-1.3,-50.0,-55.0,-10.0,31.616,12.084,-16.784,0.0,0.0,0
456,27.5,100740.0,0.139,-0.104,-0.968,-50.0,-55.0,-10.0,5.798,6.225,-27.587,0.0,0.0,0
457,27.5,100748.0,0.016,-0.016,-0.951,-50.0,-55.0,-10.0,6.286,5.737,-29.296,0.0,0.0,0
458,27.5,100737.0,0.016,-0.05,-0.868,-50.0,-55.0,-10.0,-14.221,1.586,-27.465,0.0,0.0,0
459,27.5,100736.0,0.047,-0.051,-0.958,-50.0,-55.0,-10.0,-5.554,2.685,-17.333,0.0,0.0,0
460,27.5,100742.0,0.065,-0.101,-0.956,-50.0,-55.0,-10.0,-8.544,-11.901,-16.174,0.0,0.0,0
461,27.5,100742.0,0.049,-0.105,-1.074,-50.0,-55.0,-10.0,-14.709,-8.911,8.239,0.0,0.0,0
462,27.5,100743.0,0.04,-0.002,-1.166,-50.0,-55.0,-10.0,17.15,-5.004,2.746,0.0,0.0,0
463,27.5,100748.0,-0.012,-0.049,-0.934,-50.0,-55.0,-10.0,-21.667,-16.296,-14.343,0.0,0.0,0
464,27.5,100740.0,-0.02,-0.022,-1.005,-50.0,-55.0,-10.0,-1.525,-8.85,-2.38,0.0,0.0,0
465,27.5,100746.0,-0.025,-0.025,-0.886,-50.0,-55.0,-10.0,1.342,-14.404,-11.169,0.0,0.0,0
466,27.5,100747.0,0.017,-0.068,-0.878,-50.0,-55.0,-10.0,-11.108,-4.882,-11.596,0.0,0.0,0
467,27.5,100741.0,0.023,-0.098,-0.928,-50.0,-55.0,-10.0,-12.878,-6.408,-10.925,0.0,0.0,0
468,27.5,100746.0,0.077,-0.093,-0.995,-50.0,-55.0,-10.0,-11.535,-6.652,-21.85,0.0,0.0,0
469,27.5,100741.0,0.005,-0.097,-1.056,-50.0,-55.0,-10.0,-20.263,19.714,-6.958,0.0,0.0,0
470,27.5,100744.0,0.104,0.043,-1.157,-50.0,-55.0,-10.0,18.798,-4.76,-23.742,0.0,0.0,0
471,27.5,100743.0,0.09,-0.071,-0.944,-50.0,-55.0,-10.0,6.835,16.052,-27.893,0.0,0.0,0
472,27.5,100739.0,-0.002,0.01,-1.053,-50.0,-55.0,-10.0,10.62,-14.526,-23.254,0.0,0.0,0
473,27.5,100746.0,0.095,-0.05,-0.856,-50.0,-55.0,-10.0,5.249,-7.263,-20.751,0.0,0.0,0
474,27.5,100748.0,0.069,-0.053,-0.918,-50.0,-55.0,-10.0,-13.427,-0.976,-13.793,0.0,0.0,0
475,27.5,100744.0,0.076,-0.063,-0.992,-50.0,-55.0,-10.0,-9.338,-7.629,-11.84,0.0,0.0,0
476,27.5,100742.0,0.04,-0.068,-1.062,-50.0,-55.0,-10.0,-16.906,-6.774,-3.845,0.0,0.0,0
477,27.5,100736.0,0.048,0.104,-1.194,-50.0,-55.0,-10.0,13.916,0.305,-3.234,0.0,0.0,0
478,27.5,100738.0,0.047,-0.074,-0.992,-50.0,-55.0,-10.0,-1.342,-2.868,-9.826,0.0,0.0,0
479,27.5,100741.0,0.017,0.022,-0.988,-50.0,-55.0,-10.0,2.746,-7.141,-6.469,0.0,0.0,0
480,27.5,100733.0,0.057,-0.07,-0.856,-50.0,-55.0,-10.0,-13.305,-2.075,-17.395,0.0,0.0,0
481,27.5,100735.0,0.051,-0.069,-0.906,-50.0,-55.0,-10.0,-13.793,-2.563,-10.986,0.0,0.0,0
482,27.5,100743.0,-0.003,-0.118,-0.922,-50.0,-55.0,-10.0,-24.597,5.737,-15.93,0.0,0.0,0
483,27.5,100737.0,0.045,-0.095,-1.067,-50.0,-55.0,-10.0,-6.469,-3.479,-22.216,0.0,0.0,0
484,27.5,100739.0,0.049,-0.044,-1.137,-50.0,-55.0,-10.0,1.098,8.544,-14.16,0.0,0.0,0
485,27.5,100736.0,0.075,-0.114,-0.953,-50.0,-55.0,-10.0,5.493,-14.953,-33.752,0.0,0.0,0
486,27.5,100741.0,0.083,0.018,-1.051,-50.0,-55.0,-10.0,12.817,12.084,-12.756,0.0,0.0,0
487,27.5,100730.0,0.031,-0.064,-0.852,-50.0,-55.0,-10.0,-7.934,-4.76,-13.61,0.0,0.0,0
488,27.5,100742.0,0.059,-0.097,-0.894,-50.0,-55.0,-10.0,-13.061,7.08,-8.3,0.0,0.0,0
489,27.5,100743.0,0.073,-0.041,-0.969,-50.0,-55.0,-10.0,-11.047,-11.718,-7.202,0.0,0.0,0
490,27.5,100741.0,0.073,-0.089,-1.031,-50.0,-55.0,-10.0,-20.019,8.728,9.216,0.0,0.0,0
491,27.5,100739.0,0.038,-0.054,-1.148,-50.0,-55.0,-10.0,15.319,-0.732,5.676,0.0,0.0,0
492,27.5,100740.0,0.008,-0.029,-0.991,-50.0,-55.0,-10.0,-5.493,-7.019,1.647,0.0,0.0,0
493,27.5,100738.0,-0.008,-0.027,-1.039,-50.0,-55.0,-10.0,-5.554,6.958,5.615,0.0,0.0,0
494,27.5,100742.0,-0.017,-0.068,-0.881,-50.0,-55.0,-10.0,-7.568,-19.714,-1.159,0.0,0.0,0
495,27.5,100742.0,0.036,-0.092,-0.833,-50.0,-55.0,-10.0,-13.793,11.657,9.216,0.0,0.0,0
496,27.5,100738.0,-0.044,-0.096,-0.955,-50.0,-55.0,-10.0,-20.019,1.403,-3.967,0.0,0.0,0
497,27.5,100741.0,0.011,-0.153,-1.045,-50.0,-55.0,-10.0,-15.93,-8.3,-11.047,0.0,0.0,0
498,27.5,100743.0,0.009,-0.102,-1.1,-50.0,-55.0,-10.0,-5.126,-2.014,7.202,0.0,0.0,0
499,27.5,100751.0,0.111,-0.032,-1.047,-50.0,-55.0,-10.0,13.61,-27.221,-20.812,0.0,0.0,0
500,27.5,100746.0,0.097,-0.025,-1.022,-50.0,-55.0,-10.0,20.996,26.062,-7.324,0.0,0.0,0
501,27.5,100744.0,0.01,-0.021,-0.919,-50.0,-55.0,-10.0,-11.779,6.591,-17.822,0.0,0.0,0
502,27.5,100751.0,0.026,-0.143,-0.821,-50.0,-55.0,-10.0,-21.118,18.737,-17.272,0.0,0.0,0
503,27.5,100751.0,0.034,-0.126,-0.956,-50.0,-55.0,-10.0,-3.051,-7.69,-8.605,0.0,0.0,0
504,27.5,100748.0,0.07,-0.083,-1.018,-50.0,-55.0,-10.0,-8.728,-4.577,-10.314,0.0,0.0,0
505,27.5,100750.0,-0.032,-0.103,-1.185,-50.0,-55.0,-10.0,-4.516,5.493,5.737,0.0,0.0,0
506,27.5,100743.0,-0.006,-0.069,-0.966,-50.0,-55.0,-10.0,-3.479,-32.104,-6.958,0.0,0.0,0
507,27.5,100745.0,-0.009,-0.06,-0.966,-50.0,-55.0,-10.0,-2.319,20.507,0.427,0.0,0.0,0
508,27.5,100745.0,-0.058,-0.039,-0.973,-50.0,-55.0,-10.0,-0.183,-18.188,0.244,0.0,0.0,0
509,27.5,100748.0,0.004,-0.09,-0.844,-50.0,-55.0,-10.0,-14.16,-17.272,-0.305,0.0,0.0,0
510,27.5,100745.0,-0.034,-0.085,-0.914,-50.0,-55.0,-10.0,-17.883,-1.22,-3.417,0.0,0.0,0
511,27.5,100741.0,0.016,-0.15,-0.998,-50.0,-55.0,-10.0,-14.465,-2.624,-10.925,0.0,0.0,0
512,27.5,100753.0,-0.017,-0.069,-1.109,-50.0,-55.0,-10.0,9.277,5.554,0.671,0.0,0.0,0
513,27.5,100748.0,0.042,0.009,-1.137,-50.0,-55.0,-10.0,6.408,-22.583,-17.822,0.0,0.0,0
514,27.5,100744.0,0.106,-0.059,-0.973,-50.0,-55.0,-10.0,14.343,10.192,-4.15,0.0,0.0,0
515,27.5,100746.0,0.001,-0.001,-0.965,-50.0,-55.0,-10.0,-2.807,0.732,-9.094,0.0,0.0,0
516,27.5,100743.0,0.052,-0.095,-0.839,-50.0,-55.0,-10.0,-18.859,3.479,-4.882,0.0,0.0,0
517,27.5,100744.0,0.091,-0.091,-0.889,-50.0,-55.0,-10.0,-9.399,-6.774,1.22,0.0,0.0,0
518,27.5,100741.0,0.042,-0.124,-1.027,-50.0,-55.0,-10.0,-8.911,10.07,15.93,0.0,0.0,0
519,27.5,100743.0,-0.024,-0.052,-1.204,-50.0,-55.0,-10.0,4.028,-6.469,21.301,0.0,0.0,0
520,27.5,100738.0,-0.009,-0.074,-0.992,-50.0,-55.0,-10.0,-18.92,-5.004,13.183,0.0,0.0,0
521,27.5,100748.0,-0.013,0.026,-1.124,-50.0,-55.0,-10.0,18.737,-5.92,11.352,0.0,0.0,0
522,27.6,100748.0,-0.016,-0.067,-0.907,-50.0,-55.0,-10.0,-9.399,-7.812,-1.281,0.0,0.0,0
523,27.6,100741.0,-0.018,-0.111,-0.86,-50.0,-55.0,-10.0,-15.075,-3.234,8.728,0.0,0.0,0
524,27.6,100738.0,0.007,-0.096,-0.933,-50.0,-55.0,-10.0,-5.798,-2.99,10.314,0.0,0.0,0
525,27.6,100738.0,0.015,-0.127,-1.02,-50.0,-55.0,-10.0,-35.217,3.234,-6.896,0.0,0.0,0
526,27.6,100735.0,0.032,-0.108,-1.028,-50.0,-55.0,-10.0,-9.948,2.136,-7.08,0.0,0.0,0
527,27.6,100739.0,0.049,-0.117,-1.086,-50.0,-55.0,-10.0,11.108,-6.347,-9.094,0.0,0.0,0
528,27.6,100743.0,0.068,-0.032,-1.081,-50.0,-55.0,-10.0,25.695,-9.582,-0.549,0.0,0.0,0
529,27.6,100744.0,0.004,-0.014,-0.92,-50.0,-55.0,-10.0,0.732,9.46,-4.516,0.0,0.0,0
530,27.6,100741.0,0.028,-0.11,-0.843,-50.0,-55.0,-10.0,-20.629,15.014,-6.042,0.0,0.0,0
531,27.6,100739.0,0.057,-0.092,-0.915,-50.0,-55.0,-10.0,-12.878,-2.807,4.943,0.0,0.0,0
532,27.6,100743.0,0.074,-0.156,-0.978,-50.0,-55.0,-10.0,-14.038,8.85,5.859,0.0,0.0,0
533,27.6,100741.0,0.021,-0.064,-1.226,-50.0,-55.0,-10.0,1.586,-4.76,12.878,0.0,0.0,0
534,27.6,100737.0,0.021,-0.078,-1.006,-50.0,-55.0,-10.0,-11.413,-6.53,8.422,0.0,0.0,0
535,27.6,100747.0,-0.019,-0.022,-1.097,-50.0,-55.0,-10.0,14.099,10.07,14.709,0.0,0.0,0
536,27.6,100750.0,-0.04,-0.02,-0.978,-50.0,-55.0,-10.0,1.281,-6.652,8.972,0.0,0.0,0
537,27.6,100738.0,0.028,-0.108,-0.806,-50.0,-55.0,-10.0,-20.385,-4.699,-3.906,0.0,0.0,0
538,27.6,100740.0,-0.009,-0.097,-0.926,-50.0,-55.0,-10.0,-6.164,-2.319,-0.183,0.0,0.0,0
539,27.6,100738.0,-0.027,-0.174,-0.941,-50.0,-55.0,-10.0,-26.306,7.202,-8.117,0.0,0.0,0
540,27.6,100737.0,-0.058,-0.123,-1.125,-50.0,-55.0,-10.0,2.197,5.676,-3.906,0.0,0.0,0
541,27.6,100746.0,0.046,0.014,-1.215,-50.0,-55.0,-10.0,22.827,0.0,-8.544,0.0,0.0,0
542,27.6,100743.0,0.092,-0.153,-0.964,-50.0,-55.0,-10.0,5.92,5.615,-18.127,0.0,0.0,0
543,27.6,100738.0,-0.011,-0.009,-1.03,-50.0,-55.0,-10.0,10.314,-2.319,-6.958,0.0,0.0,0
544,27.6,100740.0,0.02,-0.076,-0.79,-50.0,-55.0,-10.0,-19.348,1.22,-9.094,0.0,0.0,0
545,27.6,100744.0,0.021,-0.118,-0.892,-50.0,-55.0,-10.0,-12.939,6.591,-0.366,0.0,0.0,0
546,27.6,100745.0,0.042,-0.106,-0.989,-50.0,-55.0,-10.0,-4.76,-11.352,0.427,0.0,0.0,0
547,27.6,100730.0,-0.007,-0.103,-1.074,-50.0,-55.0,-10.0,-18.005,18.249,18.005,0.0,0.0,0
548,27.6,100743.0,0.009,-0.042,-1.146,-50.0,-55.0,-10.0,12.939,-23.62,-1.281,0.0,0.0,0
549,27.6,100737.0,-0.032,-0.045,-1.112,-50.0,-55.0,-10.0,11.352,8.056,16.967,0.0,0.0,0
550,27.6,100740.0,-0.052,-0.041,-0.937,-50.0,-55.0,-10.0,-2.563,7.812,14.038,0.0,0.0,0
551,27.6,100741.0,-0.042,-0.098,-0.831,-50.0,-55.0,-10.0,-10.437,-3.784,0.488,0.0,0.0,0
552,27.6,100735.0,-0.037,-0.054,-0.997,-50.0,-55.0,-10.0,-4.333,-4.882,10.681,0.0,0.0,0
553,27.6,100731.0,-0.028,-0.159,-0.879,-50.0,-55.0,-10.0,-31.433,1.647,-0.183,0.0,0.0,0
554,27.6,100737.0,-0.023,-0.093,-1.156,-50.0,-55.0,-10.0,5.798,-3.479,-5.004,0.0,0.0,0
555,27.6,100740.0,-0.025,-0.007,-1.197,-50.0,-55.0,-10.0,-4.882,-9.338,-3.356,0.0,0.0,0
556,27.6,100733.0,0.1,-0.135,-0.989,-50.0,-55.0,-10.0,15.991,10.009,-0.915,0.0,0.0,0
557,27.6,100745.0,0.012,0.0,-1.008,-50.0,-55.0,-10.0,15.197,-10.498,-3.295,0.0,0.0,0
558,27.6,100742.0,-0.002,-0.091,-0.778,-50.0,-55.0,-10.0,-24.902,7.385,-8.178,0.0,0.0,0
559,27.6,100735.0,0.01,-0.117,-0.915,-50.0,-55.0,-10.0,-12.451,-1.953,4.577,0.0,0.0,0
560,27.6,100739.0,0.056,-0.102,-0.977,-50.0,-55.0,-10.0,-5.981,-13.793,8.056,0.0,0.0,0
561,27.6,100742.0,-0.013,-0.117,-1.077,-50.0,-55.0,-10.0,-15.136,16.967,23.315,0.0,0.0,0
562,27.6,100741.0,0.016,-0.004,-1.124,-50.0,-55.0,-10.0,21.789,-30.7,5.249,0.0,0.0,0
563,27.6,100740.0,-0.044,-0.095,-1.067,-50.0,-55.0,-10.0,-8.666,19.592,23.132,0.0,0.0,0
564,27.6,100735.0,-0.073,-0.031,-0.958,-50.0,-55.0,-10.0,6.469,-9.277,30.578,0.0,0.0,0
565,27.6,100741.0,0.002,-0.06,-0.875,-50.0,-55.0,-10.0,-12.207,-3.112,12.878,0.0,0.0,0
566,27.6,100739.0,-0.004,-0.112,-0.888,-50.0,-55.0,-10.0,-15.686,6.408,15.38,0.0,0.0,0
567,27.6,100741.0,-0.006,-0.144,-0.913,-50.0,-55.0,-10.0,-32.104,-2.197,5.92,0.0,0.0,0
568,27.6,100737.0,0.026,-0.091,-1.128,-50.0,-55.0,-10.0,-6.408,-5.065,3.234,0.0,0.0,0
569,27.6,100734.0,0.013,-0.033,-1.191,-50.0,-55.0,-10.0,2.746,16.845,10.192,0.0,0.0,0
570,27.6,100736.0,0.115,-0.115,-1.051,-50.0,-55.0,-10.0,17.395,-13.61,3.845,0.0,0.0,0
571,27.6,100737.0,0.032,0.0,-1.006,-50.0,-55.0,-10.0,2.929,0.61,7.812,0.0,0.0,0
572,27.6,100737.0,0.017,-0.102,-0.787,-50.0,-55.0,-10.0,-24.658,12.329,-2.197,0.0,0.0,0
573,27.6,100738.0,0.048,-0.117,-0.863,-50.0,-55.0,-10.0,-14.343,7.507,7.995,0.0,0.0,0
574,27.7,100734.0,0.079,-0.109,-0.899,-50.0,-55.0,-10.0,-6.713,-17.517,5.249,0.0,0.0,0
575,27.6,100742.0,0.023,-0.124,-1.04,-50.0,-55.0,-10.0,-20.385,15.075,29.174,0.0,0.0,0
576,27.6,100735.0,0.017,-0.12,-1.128,-50.0,-55.0,-10.0,25.939,1.892,16.296,0.0,0.0,0
577,27.7,100739.0,-0.076,-0.109,-1.043,-50.0,-55.0,-10.0,-9.643,-6.591,19.775,0.0,0.0,0
578,27.7,100732.0,-0.001,-0.095,-1.033,-50.0,-55.0,-10.0,4.333,5.432,35.827,0.0,0.0,0
579,27.7,100736.0,-0.075,-0.02,-0.95,-50.0,-55.0,-10.0,-2.99,-2.685,18.981,0.0,0.0,0
580,27.7,100737.0,0.025,-0.143,-0.815,-50.0,-55.0,-10.0,-15.441,-12.023,15.441,0.0,0.0,0
581,27.7,100738.0,-0.015,-0.126,-0.911,-50.0,-55.0,-10.0,-12.268,-7.019,16.54,0.0,0.0,0
582,27.7,100737.0,0.01,-0.178,-0.981,-50.0,-55.0,-10.0,-13.488,-0.793,2.746,0.0,0.0,0
583,27.7,100737.0,-0.082,-0.133,-1.164,-50.0,-55.0,-10.0,-0.854,5.432,24.658,0.0,0.0,0
584,27.7,100733.0,0.019,0.044,-1.198,-50.0,-55.0,-10.0,14.892,-20.263,14.404,0.0,0.0,0
585,27.7,100742.0,0.032,-0.045,-1.053,-50.0,-55.0,-10.0,18.249,20.751,33.447,0.0,0.0,0
586,27.7,100734.0,0.008,-0.05,-0.876,-50.0,-55.0,-10.0,0.671,3.662,11.535,0.0,0.0,0
587,27.7,100732.0,0.003,-0.077,-0.843,-50.0,-55.0,-10.0,-24.414,16.357,19.531,0.0,0.0,0
588,27.7,100739.0,0.038,-0.089,-0.885,-50.0,-55.0,-10.0,-8.666,-8.544,27.954,0.0,0.0,0
589,27.7,100747.0,0.061,-0.095,-1.001,-50.0,-55.0,-10.0,-4.76,-2.746,23.681,0.0,0.0,0
590,27.7,100743.0,-0.062,-0.104,-1.119,-50.0,-55.0,-10.0,-14.892,19.348,37.17,0.0,0.0,0
591,27.7,100738.0,0.0,-0.033,-1.126,-50.0,-55.0,-10.0,10.681,-16.174,24.963,0.0,0.0,0
592,27.7,100739.0,-0.074,-0.092,-0.998,-50.0,-55.0,-10.0,-6.347,6.713,35.949,0.0,0.0,0
593,27.7,100743.0,-0.025,-0.012,-1.046,-50.0,-55.0,-10.0,9.033,-7.751,36.926,0.0,0.0,0
594,27.7,100746.0,-0.02,-0.129,-0.775,-50.0,-55.0,-10.0,-22.399,0.854,21.118,0.0,0.0,0
595,27.7,100741.0,-0.045,-0.138,-0.891,-50.0,-55.0,-10.0,-6.774,2.807,28.259,0.0,0.0,0
596,27.7,100742.0,-0.031,-0.131,-0.926,-50.0,-55.0,-10.0,-18.798,-17.272,23.864,0.0,0.0,0
597,27.7,100744.0,-0.016,-0.168,-1.062,-50.0,-55.0,-10.0,-12.817,-3.112,12.329,0.0,0.0,0
598,27.7,100745.0,0.051,-0.016,-1.211,-50.0,-55.0,-10.0,35.217,13.671,31.677,0.0,0.0,0
599,27.7,100739.0,0.072,-0.069,-1.013,-50.0,-55.0,-10.0,-10.864,-12.39,14.526,0.0,0.0,0
600,27.7,100742.0,0.058,-0.046,-0.91,-50.0,-55.0,-10.0,2.929,4.943,10.803,0.0,0.0,0
601,27.7,100733.0,0.028,-0.033,-0.853,-50.0,-55.0,-10.0,-17.15,5.249,6.469,0.0,0.0,0
602,27.7,100732.0,0.061,-0.078,-0.94,-50.0,-55.0,-10.0,-15.319,11.108,18.676,0.0,0.0,0
603,27.7,100736.0,0.03,-0.045,-1.016,-50.0,-55.0,-10.0,-18.432,-6.225,33.447,0.0,0.0,0
604,27.7,100741.0,-0.061,-0.078,-1.092,-50.0,-55.0,-10.0,-14.526,5.615,44.006,0.0,0.0,0
605,27.7,100735.0,0.04,-0.012,-1.116,-50.0,-55.0,-10.0,5.371,-3.967,33.691,0.0,0.0,0
606,27.7,100743.0,-0.029,-0.115,-1.039,-50.0,-55.0,-10.0,-2.624,14.038,41.809,0.0,0.0,0
607,27.7,100738.0,-0.061,0.057,-1.003,-50.0,-55.0,-10.0,15.747,-0.854,38.452,0.0,0.0,0
608,27.7,100742.0,-0.03,-0.072,-0.767,-50.0,-55.0,-10.0,-13.854,-13.061,15.502,0.0,0.0,0
609,27.7,100744.0,0.0,-0.117,-0.855,-50.0,-55.0,-10.0,-17.089,11.291,24.108,0.0,0.0,0
610,27.7,100733.0,0.013,-0.114,-0.967,-50.0,-55.0,-10.0,-10.742,-10.07,19.104,0.0,0.0,0
611,27.7,100741.0,0.038,-0.127,-1.129,-50.0,-55.0,-10.0,-16.54,1.098,3.601,0.0,0.0,0
612,27.7,100745.0,0.033,-0.152,-1.076,-50.0,-55.0,-10.0,-12.023,16.113,8.056,0.0,0.0,0
613,27.799,100732.0,0.035,-0.007,-1.157,-50.0,-55.0,-10.0,-3.784,-18.554,-2.197,0.0,0.0,0
614,27.7,100740.0,0.07,-0.023,-0.99,-50.0,-55.0,-10.0,15.075,0.915,0.732,0.0,0.0,0
615,27.799,100739.0,-0.009,-0.064,-0.771,-50.0,-55.0,-10.0,-16.113,15.014,-5.065,0.0,0.0,0
616,27.7,100742.0,0.034,-0.096,-0.84,-50.0,-55.0,-10.0,-17.028,13.366,1.22,0.0,0.0,0
617,27.799,100741.0,0.014,-0.084,-0.961,-50.0,-55.0,-10.0,-4.76,3.662,14.282,0.0,0.0,0
618,27.799,100738.0,-0.025,-0.076,-1.082,-50.0,-55.0,-10.0,-14.221,8.666,39.306,0.0,0.0,0
619,27.799,100743.0,0.014,-0.145,-1.036,-50.0,-55.0,-10.0,4.333,-19.104,29.174,0.0,0.0,0
620,27.799,100742.0,-0.045,0.041,-1.157,-50.0,-55.0,-10.0,7.263,1.098,32.226,0.0,0.0,0
621,27.799,100744.0,-0.108,-0.023,-1.079,-50.0,-55.0,-10.0,-2.502,35.583,41.076,0.0,0.0,0
622,27.799,100746.0,-0.089,0.003,-1.008,-50.0,-55.0,-10.0,5.554,-10.681,21.362,0.0,0.0,0
623,27.799,100752.0,-0.056,-0.14,-0.765,-50.0,-55.0,-10.0,-29.235,-11.474,12.451,0.0,0.0,0
624,27.799,100741.0,-0.06,-0.097,-0.963,-50.0,-55.0,-10.0,-4.211,-3.234,24.536,0.0,0.0,0
625,27.799,100745.0,-0.015,-0.143,-0.929,-50.0,-55.0,-10.0,-22.888,-14.221,12.817,0.0,0.0,0
626,27.799,100741.0,-0.016,-0.12,-1.096,-50.0,-55.0,-10.0,-9.643,15.563,5.554,0.0,0.0,0
627,27.799,100743.0,0.041,-0.158,-1.119,-50.0,-55.0,-10.0,-2.502,-3.601,8.3,0.0,0.0,0
628,27.799,100740.0,0.061,-0.145,-0.988,-50.0,-55.0,-10.0,2.258,-17.517,3.173,0.0,0.0,0
629,27.799,100742.0,0.0,-0.008,-0.99,-50.0,-55.0,-10.0,0.0,2.197,7.69,0.0,0.0,0
630,27.799,100743.0,-0.024,-0.046,-0.882,-50.0,-55.0,-10.0,-20.446,10.925,6.225,0.0,0.0,0
631,27.799,100737.0,0.049,-0.103,-0.883,-50.0,-55.0,-10.0,-6.408,3.417,14.221,0.0,0.0,0
632,27.799,100734.0,0.031,-0.057,-0.92,-50.0,-55.0,-10.0,-14.282,-8.544,20.751,0.0,0.0,0
633,27.799,100737.0,0.049,-0.096,-1.022,-50.0,-55.0,-10.0,-7.324,8.178,33.935,0.0,0.0,0
634,27.799,100735.0,0.01,-0.091,-1.078,-50.0,-55.0,-10.0,2.929,-4.516,31.86,0.0,0.0,0
635,27.799,100741.0,-0.01,0.011,-1.111,-50.0,-55.0,-10.0,5.554,-9.582,31.433,0.0,0.0,0
636,27.799,100743.0,-0.022,-0.084,-1.104,-50.0,-55.0,-10.0,6.164,15.502,37.78,0.0,0.0,0
637,27.799,100738.0,-0.064,-0.042,-0.98,-50.0,-55.0,-10.0,-7.934,-11.718,32.409,0.0,0.0,0
638,27.799,100735.0,0.001,-0.062,-0.874,-50.0,-55.0,-10.0,-17.395,-5.554,18.493,0.0,0.0,0
639,27.799,100738.0,0.036,-0.103,-0.87,-50.0,-55.0,-10.0,0.732,0.549,28.503,0.0,0.0,0
640,27.799,100740.0,-0.016,-0.083,-0.927,-50.0,-55.0,-10.0,-9.277,-1.281,24.597,0.0,0.0,0
641,27.799,100739.0,0.056,-0.104,-1.005,-50.0,-55.0,-10.0,-10.253,2.197,15.075,0.0,0.0,0
642,27.799,100740.0,-0.035,-0.129,-1.022,-50.0,-55.0,-10.0,-22.644,18.249,28.503,0.0,0.0,0
643,27.799,100741.0,0.023,-0.049,-1.095,-50.0,-55.0,-10.0,-3.234,-11.047,26.306,0.0,0.0,0
644,27.799,100738.0,0.096,-0.155,-0.974,-50.0,-55.0,-10.0,-1.525,-8.666,12.695,0.0,0.0,0
645,27.799,100743.0,0.012,0.085,-1.135,-50.0,-55.0,-10.0,13.061,16.296,25.756,0.0,0.0,0
646,27.799,100738.0,0.006,-0.096,-0.801,-50.0,-55.0,-10.0,-18.432,3.356,14.038,0.0,0.0,0
647,27.799,100733.0,0.04,-0.027,-0.988,-50.0,-55.0,-10.0,1.586,15.136,17.395,0.0,0.0,0
648,27.799,100742.0,0.054,0.025,-1.083,-50.0,-55.0,-10.0,-14.221,12.695,31.066,0.0,0.0,0
649,27.799,100743.0,0.038,-0.005,-0.938,-50.0,-55.0,-10.0,-14.587,3.479,28.259,0.0,0.0,0
650,27.799,100743.0,0.089,-0.044,-0.979,-50.0,-55.0,-10.0,6.835,12.573,23.193,0.0,0.0,0
651,27.799,100742.0,0.068,-0.05,-0.988,-50.0,-55.0,-10.0,3.356,-5.371,12.512,0.0,0.0,0
652,27.799,100737.0,0.02,-0.041,-1.023,-50.0,-55.0,-10.0,-7.202,16.601,1.403,0.0,0.0,0
653,27.799,100735.0,-0.041,-0.067,-1.011,-50.0,-55.0,-10.0,-2.502,-2.136,-5.737,0.0,0.0,0
654,27.799,100733.0,-0.075,-0.085,-0.983,-50.0,-55.0,-10.0,-0.549,-6.958,-14.099,0.0,0.0,0
655,27.799,100739.0,-0.114,-0.051,-1.002,-50.0,-55.0,-10.0,5.554,-0.122,-17.089,0.0,0.0,0
656,27.799,100737.0,-0.116,-0.077,-0.964,-50.0,-55.0,-10.0,-9.704,3.173,-14.221,0.0,0.0,0
657,27.799,100742.0,-0.109,-0.09,-0.98,-50.0,-55.0,-10.0,-5.065,-2.136,-16.723,0.0,0.0,0
658,27.799,100737.0,-0.109,-0.076,-0.988,-50.0,-55.0,-10.0,-0.61,3.051,-8.728,0.0,0.0,0
659,27.899,100739.0,-0.126,-0.063,-1.003,-50.0,-55.0,-10.0,-12.268,0.549,-7.812,0.0,0.0,0
660,27.899,100739.0,-0.081,-0.066,-0.992,-50.0,-55.0,-10.0,-3.967,-6.774,-12.084,0.0,0.0,0
661,27.899,100739.0,-0.04,-0.092,-1.025,-50.0,-55.0,-10.0,5.615,-12.023,-9.521,0.0,0.0,0
662,27.899,100743.0,-0.049,-0.019,-0.972,-50.0,-55.0,-10.0,-9.033,-9.399,-2.197,0.0,0.0,0
663,27.899,100747.0,-0.054,-0.084,-0.988,-50.0,-55.0,-10.0,-5.737,5.676,2.746,0.0,0.0,0
664,27.899,100742.0,-0.02,-0.029,-1.036,-50.0,-55.0,-10.0,4.577,-22.277,0.183,0.0,0.0,0
665,27.899,100744.0,0.002,-0.043,-0.948,-50.0,-55.0,-10.0,-13.122,-4.394,10.131,0.0,0.0,0
666,27.899,100740.0,0.012,-0.04,-0.992,-50.0,-55.0,-10.0,-18.676,5.981,18.127,0.0,0.0,0
667,27.899,100743.0,0.022,-0.034,-1.026,-50.0,-55.0,-10.0,-2.929,-8.666,16.357,0.0,0.0,0
668,27.899,100742.0,0.055,-0.085,-0.944,-50.0,-55.0,-10.0,-20.812,-3.906,10.681,0.0,0.0,0
669,27.899,100740.0,0.06,-0.083,-1.059,-50.0,-55.0,-10.0,-0.732,7.019,24.658,0.0,0.0,0
670,27.899,100739.0,0.048,-0.075,-1.005,-50.0,-55.0,-10.0,-1.892,-8.422,24.291,0.0,0.0,0
671,27.899,100743.0,0.073,0.001,-0.992,-50.0,-55.0,-10.0,1.22,-8.789,26.672,0.0,0.0,0
672,27.899,100740.0,0.155,-0.082,-0.916,-50.0,-55.0,-10.0,-18.249,1.342,22.033,0.0,0.0,0
673,27.899,100745.0,0.125,-0.026,-1.003,-50.0,-55.0,-10.0,-4.455,20.202,28.93,0.0,0.0,0
674,27.899,100746.0,0.126,-0.007,-1.01,-50.0,-55.0,-10.0,-14.709,0.61,24.047,0.0,0.0,0
675,27.899,100737.0,0.13,-0.045,-0.951,-50.0,-55.0,-10.0,-10.864,2.075,17.822,0.0,0.0,0
676,27.899,100740.0,0.081,-0.072,-0.964,-50.0,-55.0,-10.0,-7.202,6.286,18.676,0.0,0.0,0
677,27.899,100744.0,0.047,-0.054,-0.979,-50.0,-55.0,-10.0,1.953,-10.986,14.831,0.0,0.0,0
678,27.899,100740.0,0.049,-0.107,-0.966,-50.0,-55.0,-10.0,15.808,-7.324,10.253,0.0,0.0,0
679,27.899,100741.0,-0.029,-0.086,-1.027,-50.0,-55.0,-10.0,6.286,-5.31,13.977,0.0,0.0,0
680,27.899,100742.0,-0.043,-0.044,-1.023,-50.0,-55.0,-10.0,4.272,5.798,21.179,0.0,0.0,0
681,27.899,100741.0,-0.037,-0.077,-0.987,-50.0,-55.0,-10.0,-0.488,5.065,12.145,0.0,0.0,0
682,27.899,100739.0,-0.024,-0.096,-1.007,-50.0,-55.0,-10.0,-12.268,9.765,14.892,0.0,0.0,0
683,27.899,100748.0,-0.034,-0.104,-0.998,-50.0,-55.0,-10.0,-10.498,20.019,9.948,0.0,0.0,0
684,27.899,100740.0,-0.002,-0.073,-1.005,-50.0,-55.0,-10.0,-7.629,2.624,8.239,0.0,0.0,0
685,27.899,100744.0,-0.013,-0.088,-0.954,-50.0,-55.0,-10.0,-14.038,4.394,2.38,0.0,0.0,0
686,27.899,100740.0,-0.007,-0.04,-1.021,-50.0,-55.0,-10.0,-2.38,6.958,6.164,0.0,0.0,0
687,27.899,100732.0,-0.016,-0.065,-0.936,-50.0,-55.0,-10.0,-12.268,-7.324,-4.394,0.0,0.0,0
688,27.899,100740.0,0.011,-0.075,-1.014,-50.0,-55.0,-10.0,-5.554,0.0,-0.915,0.0,0.0,0
689,27.899,100737.0,-0.037,-0.025,-1.057,-50.0,-55.0,-10.0,-8.789,-7.69,-4.821,0.0,0.0,0
690,27.899,100737.0,0.02,-0.074,-0.999,-50.0,-55.0,-10.0,-8.239,-12.329,-1.037,0.0,0.0,0
691,27.899,100725.0,0.012,-0.09,-0.951,-50.0,-55.0,-10.0,-7.324,-8.239,-4.028,0.0,0.0,0
692,27.899,100737.0,0.022,-0.076,-0.968,-50.0,-55.0,-10.0,-9.887,-2.441,-1.831,0.0,0.0,0
693,27.899,100738.0,0.026,-0.097,-0.982,-50.0,-55.0,-10.0,-0.427,2.319,-3.173,0.0,0.0,0
694,27.899,100740.0,0.001,-0.116,-0.979,-50.0,-55.0,-10.0,-7.141,3.723,1.281,0.0,0.0,0
695,27.899,100736.0,-0.013,-0.079,-0.991,-50.0,-55.0,-10.0,-4.333,5.493,5.981,0.0,0.0,0
696,27.899,100736.0,-0.037,-0.095,-0.981,-50.0,-55.0,-10.0,-6.774,6.225,7.263,0.0,0.0,0
697,27.899,100739.0,-0.043,-0.102,-0.98,-50.0,-55.0,-10.0,3.234,1.281,13.916,0.0,0.0,0
698,27.899,100731.0,-0.071,-0.07,-1.004,-50.0,-55.0,-10.0,1.22,-0.854,24.047,0.0,0.0,0
699,27.899,100733.0,-0.045,-0.07,-0.966,-50.0,-55.0,-10.0,-1.098,-12.634,29.418,0.0,0.0,0
700,27.899,100734.0,-0.027,-0.063,-0.972,-50.0,-55.0,-10.0,2.136,-3.845,32.104,0.0,0.0,0
701,27.899,100732.0,-0.053,-0.099,-0.942,-50.0,-55.0,-10.0,-15.563,0.061,27.77,0.0,0.0,0
702,27.899,100730.0,-0.073,-0.045,-1.064,-50.0,-55.0,-10.0,3.173,13.366,49.682,0.0,0.0,0
703,27.899,100733.0,-0.027,-0.063,-1.014,-50.0,-55.0,-10.0,-3.051,-16.418,10.803,0.0,0.0,0
704,28.0,100730.0,0.002,-0.05,-1.023,-50.0,-55.0,-10.0,-4.76,17.883,25.451,0.0,0.0,0
705,28.0,100732.0,0.0,-0.04,-1.027,-50.0,-55.0,-10.0,-14.587,2.807,18.432,0.0,0.0,0
706,28.0,100733.0,0.092,-0.125,-0.916,-50.0,-55.0,-10.0,-18.554,-19.531,14.465,0.0,0.0,0
707,28.0,100738.0,0.098,0.004,-1.024,-50.0,-55.0,-10.0,3.173,-7.629,37.536,0.0,0.0,0
708,28.0,100731.0,0.071,-0.051,-0.898,-50.0,-55.0,-10.0,-13.61,-6.652,25.146,0.0,0.0,0
709,28.0,100744.0,0.071,-0.078,-0.971,-50.0,-55.0,-10.0,-9.948,5.92,28.564,0.0,0.0,0
710,28.0,100738.0,0.108,-0.077,-0.991,-50.0,-55.0,-10.0,4.333,-9.277,34.301,0.0,0.0,0
711,28.0,100739.0,0.125,-0.083,-0.995,-50.0,-55.0,-10.0,-4.516,-1.647,27.832,0.0,0.0,0
712,28.0,100737.0,0.096,-0.032,-1.032,-50.0,-55.0,-10.0,-6.652,4.76,19.592,0.0,0.0,0
713,28.0,100736.0,0.043,-0.056,-0.981,-50.0,-55.0,-10.0,-12.451,12.634,23.986,0.0,0.0,0
714,28.0,100736.0,0.037,-0.069,-0.957,-50.0,-55.0,-10.0,-6.958,2.746,26.0,0.0,0.0,0
715,28.0,100738.0,0.056,-0.009,-1.018,-50.0,-55.0,-10.0,15.747,-2.563,21.057,0.0,0.0,0
716,28.0,100734.0,0.018,-0.048,-0.952,-50.0,-55.0,-10.0,-14.587,4.638,14.831,0.0,0.0,0
717,28.0,100730.0,-0.006,-0.093,-1.057,-50.0,-55.0,-10.0,-0.122,17.15,28.686,0.0,0.0,0
718,28.0,100737.0,-0.044,-0.028,-0.973,-50.0,-55.0,-10.0,-0.244,-10.314,11.596,0.0,0.0,0
719,28.0,100734.0,-0.032,-0.065,-0.964,-50.0,-55.0,-10.0,-19.836,10.253,13.305,0.0,0.0,0
720,28.0,100735.0,-0.07,-0.084,-1.0,-50.0,-55.0,-10.0,-5.371,-1.281,18.798,0.0,0.0,0
721,28.0,100731.0,-0.05,-0.041,-1.044,-50.0,-55.0,-10.0,-3.784,-12.084,14.038,0.0,0.0,0
722,28.0,100734.0,-0.039,-0.073,-0.974,-50.0,-55.0,-10.0,-10.681,-2.014,0.61,0.0,0.0,0
723,28.0,100740.0,-0.035,-0.108,-0.976,-50.0,-55.0,-10.0,-13.305,0.0,0.427,0.0,0.0,0
724,28.0,100739.0,0.027,-0.012,-1.034,-50.0,-55.0,-10.0,7.934,1.647,7.324,0.0,0.0,0
725,28.0,100741.0,0.057,-0.053,-0.941,-50.0,-55.0,-10.0,-20.996,-5.126,-4.211,0.0,0.0,0
726,28.0,100745.0,0.14,-0.039,-1.012,-50.0,-55.0,-10.0,0.366,9.399,10.864,0.0,0.0,0
727,28.0,100743.0,0.092,-0.095,-0.964,-50.0,-55.0,-10.0,1.708,-4.211,6.652,0.0,0.0,0
728,28.0,100737.0,0.097,-0.142,-0.892,-50.0,-55.0,-10.0,-6.774,-9.216,-3.051,0.0,0.0,0
729,28.0,100741.0,0.108,-0.092,-1.004,-50.0,-55.0,-10.0,5.859,-5.676,5.432,0.0,0.0,0
730,28.0,100735.0,0.134,-0.073,-1.014,-50.0,-55.0,-10.0,2.258,-11.84,0.61,0.0,0.0,0
731,28.0,100734.0,0.14,-0.073,-1.01,-50.0,-55.0,-10.0,-12.756,-3.723,-5.92,0.0,0.0,0
732,28.0,100745.0,0.069,-0.093,-1.007,-50.0,-55.0,-10.0,-17.761,7.934,-9.887,0.0,0.0,0
733,28.0,100746.0,0.041,-0.014,-1.042,-50.0,-55.0,-10.0,5.187,4.638,-2.014,0.0,0.0,0
734,28.0,100738.0,0.054,-0.014,-0.932,-50.0,-55.0,-10.0,-14.77,1.037,-15.197,0.0,0.0,0
735,28.0,100741.0,0.069,-0.138,-0.94,-50.0,-55.0,-10.0,-6.225,14.709,-2.075,0.0,0.0,0
736,28.0,100741.0,-0.002,-0.005,-1.028,-50.0,-55.0,-10.0,22.399,-4.394,-10.253,0.0,0.0,0
737,28.0,100741.0,-0.01,-0.036,-0.99,-50.0,-55.0,-10.0,-9.216,9.155,-22.033,0.0,0.0,0
738,28.0,100734.0,0.001,-0.083,-0.962,-50.0,-55.0,-10.0,-0.732,3.479,-20.629,0.0,0.0,0
739,28.0,100740.0,-0.005,-0.056,-0.989,-50.0,-55.0,-10.0,-1.159,-7.629,-30.273,0.0,0.0,0
740,28.0,100737.0,0.022,-0.04,-0.985,-50.0,-55.0,-10.0,-10.864,-0.305,-33.63,0.0,0.0,0
741,28.0,100742.0,-0.011,0.08,-1.096,-50.0,-55.0,-10.0,3.479,0.061,-26.062,0.0,0.0,0
742,28.0,100730.0,0.111,-0.14,-0.927,-50.0,-55.0,-10.0,-10.864,-7.995,-34.667,0.0,0.0,0
743,28.1,100741.0,0.083,-0.028,-0.998,-50.0,-55.0,-10.0,-4.089,-4.211,-18.615,0.0,0.0,0
744,28.1,100742.0,0.058,-0.076,-0.96,-50.0,-55.0,-10.0,-12.878,-1.892,-28.503,0.0,0.0,0
745,28.1,100749.0,0.062,-0.112,-0.939,-50.0,-55.0,-10.0,-2.868,-0.183,-16.235,0.0,0.0,0
746,28.1,100747.0,0.058,-0.086,-0.968,-50.0,-55.0,-10.0,-1.953,-7.141,-4.577,0.0,0.0,0
747,28.1,100742.0,0.074,-0.074,-0.998,-50.0,-55.0,-10.0,-2.624,-2.197,-0.122,0.0,0.0,0
748,28.1,100738.0,0.103,-0.112,-0.98,-50.0,-55.0,-10.0,1.831,-1.647,4.028,0.0,0.0,0
749,28.1,100736.0,0.099,-0.077,-1.006,-50.0,-55.0,-10.0,0.244,-4.211,-3.417,0.0,0.0,0
750,28.1,100738.0,0.029,-0.024,-1.002,-50.0,-55.0,-10.0,-19.348,0.244,-5.92,0.0,0.0,0
751,28.1,100739.0,0.014,0.011,-1.174,-50.0,-55.0,-10.0,14.648,-0.854,17.578,0.0,0.0,0
752,28.1,100736.0,0.008,-0.009,-0.906,-50.0,-55.0,-10.0,-21.911,-26.062,-3.417,0.0,0.0,0
753,28.1,100737.0,0.024,0.034,-1.051,-50.0,-55.0,-10.0,-3.417,2.868,10.742,0.0,0.0,0
754,28.1,100735.0,0.02,-0.031,-0.912,-50.0,-55.0,-10.0,-2.197,-7.507,-2.136,0.0,0.0,0
755,28.1,100735.0,-0.023,-0.068,-0.919,-50.0,-55.0,-10.0,-15.563,18.676,-4.638,0.0,0.0,0
756,28.1,100742.0,0.0,-0.036,-1.001,-50.0,-55.0,-10.0,9.521,-1.708,-4.76,0.0,0.0,0
757,28.1,100737.0,0.037,0.004,-1.03,-50.0,-55.0,-10.0,-0.244,-5.737,-15.502,0.0,0.0,0
758,28.1,100737.0,0.044,-0.049,-1.007,-50.0,-55.0,-10.0,-3.784,14.221,-14.282,0.0,0.0,0
759,28.1,100739.0,0.009,-0.02,-0.946,-50.0,-55.0,-10.0,-14.038,-7.69,-19.958,0.0,0.0,0
760,28.1,100738.0,0.035,-0.059,-0.966,-50.0,-55.0,-10.0,0.122,5.92,-15.563,0.0,0.0,0
761,28.1,100736.0,0.027,-0.038,-1.023,-50.0,-55.0,-10.0,4.516,-13.671,-18.493,0.0,0.0,0
762,28.1,100730.0,0.096,-0.069,-0.946,-50.0,-55.0,-10.0,1.098,-7.141,-17.089,0.0,0.0,0
763,28.1,100739.0,0.062,0.01,-1.053,-50.0,-55.0,-10.0,0.61,3.601,-2.563,0.0,0.0,0
764,28.1,100736.0,0.083,-0.078,-0.936,-50.0,-55.0,-10.0,-2.075,-6.53,-8.422,0.0,0.0,0
765,28.1,100740.0,0.073,-0.05,-0.979,-50.0,-55.0,-10.0,-1.831,4.882,1.708,0.0,0.0,0
766,28.1,100740.0,0.051,-0.055,-0.989,-50.0,-55.0,-10.0,-5.249,2.441,0.61,0.0,0.0,0
767,28.1,100737.0,0.077,-0.083,-0.966,-50.0,-55.0,-10.0,-9.582,6.835,4.333,0.0,0.0,0
768,28.1,100740.0,0.097,-0.044,-1.075,-50.0,-55.0,-10.0,-0.427,-5.676,8.911,0.0,0.0,0
769,28.1,100739.0,0.057,0.009,-1.009,-50.0,-55.0,-10.0,-16.235,5.554,3.906,0.0,0.0,0
770,28.1,100737.0,0.039,-0.054,-1.061,-50.0,-55.0,-10.0,-10.131,14.587,4.638,0.0,0.0,0
771,28.1,100733.0,-0.015,-0.04,-0.94,-50.0,-55.0,-10.0,-18.798,-12.329,0.183,0.0,0.0,0
772,28.1,100734.0,0.003,-0.071,-0.968,-50.0,-55.0,-10.0,-11.901,-3.417,1.892,0.0,0.0,0
773,28.1,100734.0,0.01,-0.044,-0.982,-50.0,-55.0,-10.0,-3.845,3.784,2.319,0.0,0.0,0
774,28.1,100738.0,-0.008,-0.051,-0.967,-50.0,-55.0,-10.0,-9.582,-1.586,-8.3,0.0,0.0,0
775,28.1,100737.0,0.015,-0.104,-0.964,-50.0,-55.0,-10.0,-4.089,-4.455,-0.61,0.0,0.0,0
776,28.1,100731.0,0.014,-0.096,-0.952,-50.0,-55.0,-10.0,-0.549,-14.282,-1.342,0.0,0.0,0
777,28.1,100735.0,0.019,-0.118,-0.99,-50.0,-55.0,-10.0,-7.263,-7.141,-5.371,0.0,0.0,0
778,28.1,100741.0,-0.065,-0.136,-1.0,-50.0,-55.0,-10.0,-8.605,6.408,3.601,0.0,0.0,0
779,28.1,100735.0,0.053,-0.273,-0.972,-50.0,-55.0,-10.0,-9.094,3.234,-3.967,0.0,0.0,0
780,28.1,100738.0,0.03,0.044,-1.148,-50.0,-55.0,-10.0,12.878,-2.746,-5.187,0.0,0.0,0
781,28.1,100737.0,0.158,-0.182,-0.804,-50.0,-55.0,-10.0,-21.545,-22.705,-6.408,0.0,0.0,0
782,28.1,100738.0,0.037,0.098,-1.142,-50.0,-55.0,-10.0,15.563,8.361,-8.911,0.0,0.0,0
783,28.1,100732.0,0.079,-0.111,-0.913,-50.0,-55.0,-10.0,-7.324,-10.62,-6.652,0.0,0.0,0
784,28.1,100732.0,0.045,-0.07,-0.939,-50.0,-55.0,-10.0,-3.967,-7.934,-6.896,0.0,0.0,0
785,28.1,100734.0,0.061,-0.015,-1.016,-50.0,-55.0,-10.0,3.967,-10.742,-7.08,0.0,0.0,0
786,28.1,100737.0,0.112,-0.03,-1.014,-50.0,-55.0,-10.0,-18.981,-1.647,-19.714,0.0,0.0,0
787,28.2,100740.0,0.215,-0.109,-0.932,-50.0,-55.0,-10.0,-4.028,-2.441,-11.413,0.0,0.0,0
788,28.1,100735.0,0.058,0.025,-0.979,-50.0,-55.0,-10.0,-12.878,-10.559,-37.048,0.0,0.0,0
789,28.1,100739.0,0.059,-0.016,-1.089,-50.0,-55.0,-10.0,14.709,-2.38,-16.296,0.0,0.0,0
790,28.2,100737.0,-0.001,-0.043,-0.968,-50.0,-55.0,-10.0,1.586,5.493,-22.216,0.0,0.0,0
791,28.2,100739.0,0.043,-0.125,-0.953,-50.0,-55.0,-10.0,-4.699,-9.46,-31.127,0.0,0.0,0
792,28.2,100736.0,0.134,-0.079,-0.944,-50.0,-55.0,-10.0,1.525,-17.883,-29.113,0.0,0.0,0
793,28.1,100733.0,0.057,-0.059,-1.006,-50.0,-55.0,-10.0,-7.446,3.967,-34.606,0.0,0.0,0
794,28.2,100736.0,0.092,-0.038,-1.015,-50.0,-55.0,-10.0,-2.136,1.647,-28.747,0.0,0.0,0
795,28.2,100736.0,-0.008,-0.07,-0.967,-50.0,-55.0,-10.0,-8.605,5.92,-23.071,0.0,0.0,0
796,28.2,100735.0,0.054,-0.014,-1.086,-50.0,-55.0,-10.0,10.437,4.15,-13.793,0.0,0.0,0
797,28.2,100733.0,0.037,-0.004,-0.982,-50.0,-55.0,-10.0,4.333,-10.192,-20.385,0.0,0.0,0
798,28.2,100738.0,0.087,-0.014,-1.062,-50.0,-55.0,-10.0,-4.516,21.301,-5.31,0.0,0.0,0
799,28.2,100739.0,0.04,-0.06,-0.972,-50.0,-55.0,-10.0,-11.413,-1.342,-9.338,0.0,0.0,0
800,28.2,100734.0,0.07,-0.084,-0.945,-50.0,-55.0,-10.0,-5.065,-1.281,-13.122,0.0,0.0,0
801,28.2,100736.0,0.065,-0.124,-0.933,-50.0,-55.0,-10.0,-18.005,2.807,-11.169,0.0,0.0,0
802,28.2,100738.0,0.057,-0.115,-0.935,-50.0,-55.0,-10.0,0.0,-6.896,-23.62,0.0,0.0,0
803,28.2,100730.0,0.054,-0.102,-0.976,-50.0,-55.0,-10.0,-10.742,3.479,-24.291,0.0,0.0,0
804,28.2,100732.0,0.031,-0.099,-0.966,-50.0,-55.0,-10.0,-13.183,-6.347,-22.46,0.0,0.0,0
805,28.2,100736.0,0.043,-0.033,-1.073,-50.0,-55.0,-10.0,30.944,12.878,-12.329,0.0,0.0,0
806,28.2,100733.0,0.008,-0.121,-0.988,-50.0,-55.0,-10.0,-26.184,-12.695,-18.798,0.0,0.0,0
807,28.2,100738.0,0.075,-0.035,-1.07,-50.0,-55.0,-10.0,19.348,-4.394,-23.132,0.0,0.0,0
808,28.2,100734.0,0.004,-0.013,-1.062,-50.0,-55.0,-10.0,-5.249,17.272,-33.813,0.0,0.0,0
809,28.2,100733.0,-0.009,-0.048,-0.897,-50.0,-55.0,-10.0,-16.418,3.112,-47.18,0.0,0.0,0
810,28.2,100739.0,-0.001,-0.047,-0.916,-50.0,-55.0,-10.0,1.037,-5.371,-58.776,0.0,0.0,0
811,28.2,100733.0,-0.027,-0.052,-0.936,-50.0,-55.0,-10.0,6.896,-13.0,-63.903,0.0,0.0,0
812,28.2,100743.0,-0.048,-0.027,-1.042,-50.0,-55.0,-10.0,2.685,-8.544,-77.148,0.0,0.0,0
813,28.2,100741.0,-0.039,0.027,-1.053,-50.0,-55.0,-10.0,2.624,0.732,-66.162,0.0,0.0,0
814,28.2,100732.0,-0.001,0.01,-1.019,-50.0,-55.0,-10.0,-10.314,-16.418,-76.11,0.0,0.0,0
815,28.2,100734.0,0.124,-0.01,-1.067,-50.0,-55.0,-10.0,9.826,-18.371,-63.781,0.0,0.0,0
816,28.2,100736.0,0.026,0.022,-1.056,-50.0,-55.0,-10.0,-1.464,-8.972,-30.151,0.0,0.0,0
817,28.2,100738.0,0.051,-0.082,-0.924,-50.0,-55.0,-10.0,-9.704,-22.155,-31.005,0.0,0.0,0
818,28.2,100739.0,0.069,-0.055,-0.926,-50.0,-55.0,-10.0,-8.361,-3.54,-24.536,0.0,0.0,0
819,28.2,100737.0,0.026,-0.02,-0.981,-50.0,-55.0,-10.0,0.0,15.258,-10.253,0.0,0.0,0
820,28.2,100733.0,0.03,0.006,-0.984,-50.0,-55.0,-10.0,-22.033,4.882,-6.774,0.0,0.0,0
821,28.2,100735.0,0.028,-0.038,-0.99,-50.0,-55.0,-10.0,-7.934,10.803,-5.371,0.0,0.0,0
822,28.2,100735.0,0.038,-0.047,-1.0,-50.0,-55.0,-10.0,-6.835,-2.38,-2.807,0.0,0.0,0
823,28.2,100733.0,0.04,-0.114,-0.967,-50.0,-55.0,-10.0,3.967,0.0,-2.258,0.0,0.0,0
824,28.2,100739.0,0.043,-0.079,-1.044,-50.0,-55.0,-10.0,3.967,-9.338,-16.357,0.0,0.0,0
825,28.2,100735.0,0.031,-0.084,-1.028,-50.0,-55.0,-10.0,-7.202,1.708,-12.023,0.0,0.0,0
826,28.2,100730.0,0.024,-0.139,-0.982,-50.0,-55.0,-10.0,-11.901,0.0,-8.117,0.0,0.0,0
827,28.2,100737.0,0.007,-0.169,-0.951,-50.0,-55.0,-10.0,-20.935,-2.99,-7.629,0.0,0.0,0
828,28.2,100747.0,0.043,-0.17,-0.986,-50.0,-55.0,-10.0,-0.793,-3.54,-21.789,0.0,0.0,0
829,28.2,100739.0,0.006,-0.159,-0.918,-50.0,-55.0,-10.0,-4.455,-3.417,-22.521,0.0,0.0,0
830,28.2,100741.0,0.008,-0.177,-0.968,-50.0,-55.0,-10.0,-0.61,-7.141,-11.962,0.0,0.0,0
831,28.2,100740.0,-0.019,-0.153,-0.997,-50.0,-55.0,-10.0,-6.408,-9.643,-14.404,0.0,0.0,0
832,28.2,100739.0,0.012,-0.163,-0.965,-50.0,-55.0,-10.0,-14.465,-12.268,-14.892,0.0,0.0,0
833,28.2,100739.0,0.017,-0.146,-0.97,-50.0,-55.0,-10.0,-5.249,-5.676,-13.732,0.0,0.0,0
834,28.299,100737.0,0.019,-0.092,-1.01,-50.0,-55.0,-10.0,7.69,2.136,-8.117,0.0,0.0,0
835,28.299,100746.0,0.022,-0.131,-0.99,-50.0,-55.0,-10.0,-12.756,-7.69,-3.906,0.0,0.0,0
836,28.299,100739.0,0.072,-0.103,-0.997,-50.0,-55.0,-10.0,6.53,-5.676,-6.347,0.0,0.0,0
837,28.299,100742.0,0.084,-0.115,-0.966,-50.0,-55.0,-10.0,-3.784,-7.873,-13.854,0.0,0.0,0
838,28.2,100731.0,0.071,-0.097,-0.966,-50.0,-55.0,-10.0,-4.638,-1.098,-14.099,0.0,0.0,0
839,28.299,100736.0,0.086,-0.104,-0.979,-50.0,-55.0,-10.0,-4.211,-2.624,-12.023,0.0,0.0,0
840,28.299,100732.0,0.073,-0.111,-0.993,-50.0,-55.0,-10.0,-2.075,-4.15,-10.009,0.0,0.0,0
841,28.299,100734.0,0.073,-0.107,-0.995,-50.0,-55.0,-10.0,-2.075,-3.723,-9.826,0.0,0.0,0
842,28.299,100730.0,0.07,-0.122,-0.979,-50.0,-55.0,-10.0,-5.676,-1.159,-7.324,0.0,0.0,0
843,28.299,100734.0,0.078,-0.118,-0.984,-50.0,-55.0,-10.0,-0.976,-5.065,-7.934,0.0,0.0,0
844,28.299,100735.0,0.073,-0.103,-0.979,-50.0,-55.0,-10.0,-4.089,-5.737,-5.676,0.0,0.0,0
845,28.299,100733.0,0.072,-0.094,-0.979,-50.0,-55.0,-10.0,-5.676,-2.014,-4.821,0.0,0.0,0
846,28.299,100732.0,0.083,-0.104,-0.965,-50.0,-55.0,-10.0,-4.699,-7.141,-4.028,0.0,0.0,0
847,28.299,100742.0,0.087,-0.114,-0.975,-50.0,-55.0,-10.0,-1.586,-3.784,-1.464,0.0,0.0,0
848,28.299,100735.0,0.094,-0.1,-0.995,-50.0,-55.0,-10.0,-2.807,-5.187,-2.136,0.0,0.0,0
849,28.299,100733.0,0.092,-0.09,-0.989,-50.0,-55.0,-10.0,-5.126,-4.028,1.22,0.0,0.0,0
850,28.299,100728.0,0.089,-0.094,-0.958,-50.0,-55.0,-10.0,-5.249,-1.464,1.281,0.0,0.0,0
851,28.299,100737.0,0.095,-0.087,-0.98,-50.0,-55.0,-10.0,-2.38,-4.028,-0.61,0.0,0.0,0
852,28.299,100737.0,0.099,-0.099,-0.973,-50.0,-55.0,-10.0,-2.563,0.427,1.831,0.0,0.0,0
853,28.299,100737.0,0.097,-0.081,-0.99,-50.0,-55.0,-10.0,-0.061,-2.197,0.549,0.0,0.0,0
854,28.299,100735.0,0.084,-0.099,-0.995,-50.0,-55.0,-10.0,-5.065,-0.549,0.427,0.0,0.0,0
855,28.299,100735.0,0.1,-0.08,-0.997,-50.0,-55.0,-10.0,-2.624,-4.211,1.831,0.0,0.0,0
856,28.299,100739.0,0.097,-0.083,-0.994,-50.0,-55.0,-10.0,-4.516,-0.427,2.197,0.0,0.0,0
857,28.299,100736.0,0.089,-0.083,-0.979,-50.0,-55.0,-10.0,-10.681,4.15,2.014,0.0,0.0,0
858,28.299,100737.0,0.086,-0.094,-0.977,-50.0,-55.0,-10.0,-4.943,0.854,1.647,0.0,0.0,0
859,28.299,100739.0,0.085,-0.103,-0.964,-50.0,-55.0,-10.0,-5.859,3.54,1.037,0.0,0.0,0
860,28.299,100737.0,0.083,-0.099,-0.993,-50.0,-55.0,-10.0,-3.845,4.211,2.258,0.0,0.0,0
861,28.299,100737.0,0.082,-0.106,-0.993,-50.0,-55.0,-10.0,-2.197,4.577,4.76,0.0,0.0,0
862,28.299,100729.0,0.093,-0.12,-0.964,-50.0,-55.0,-10.0,-4.394,-4.455,0.305,0.0,0.0,0
863,28.299,100740.0,0.079,-0.08,-1.025,-50.0,-55.0,-10.0,4.028,1.159,4.394,0.0,0.0,0
864,28.299,100731.0,0.075,-0.098,-0.944,-50.0,-55.0,-10.0,-14.221,-2.929,-2.136,0.0,0.0,0
865,28.299,100733.0,0.071,-0.096,-0.976,-50.0,-55.0,-10.0,-2.502,0.488,4.76,0.0,0.0,0
866,28.299,100734.0,0.074,-0.11,-1.0,-50.0,-55.0,-10.0,4.943,0.488,3.723,0.0,0.0,0
867,28.299,100740.0,0.081,-0.095,-0.992,-50.0,-55.0,-10.0,-6.469,-3.112,-0.671,0.0,0.0,0
868,28.299,100742.0,0.074,-0.075,-0.981,-50.0,-55.0,-10.0,-6.713,-0.427,4.211,0.0,0.0,0
869,28.299,100735.0,0.076,-0.1,-0.962,-50.0,-55.0,-10.0,0.793,-2.136,2.624,0.0,0.0,0
870,28.299,100738.0,0.062,-0.079,-0.994,-50.0,-55.0,-10.0,-4.089,-3.051,3.784,0.0,0.0,0
871,28.299,100737.0,0.095,-0.123,-1.001,-50.0,-55.0,-10.0,-14.465,1.037,-1.342,0.0,0.0,0
872,28.299,100741.0,0.102,-0.045,-1.066,-50.0,-55.0,-10.0,-5.065,1.586,6.042,0.0,0.0,0
873,28.299,100737.0,0.082,-0.113,-0.946,-50.0,-55.0,-10.0,-5.126,-15.258,18.859,0.0,0.0,0
874,28.299,100746.0,0.113,-0.094,-0.95,-50.0,-55.0,-10.0,-13.916,-4.882,6.53,0.0,0.0,0
875,28.299,100750.0,0.087,-0.057,-0.936,-50.0,-55.0,-10.0,-10.07,-1.77,0.305,0.0,0.0,0
876,28.299,100735.0,0.112,-0.082,-1.043,-50.0,-55.0,-10.0,-11.108,1.464,6.164,0.0,0.0,0
877,28.299,100745.0,0.125,-0.12,-1.003,-50.0,-55.0,-10.0,-16.174,-0.183,15.625,0.0,0.0,0
878,28.299,100742.0,0.155,-0.156,-1.08,-50.0,-55.0,-10.0,-7.568,-7.69,11.962,0.0,0.0,0
879,28.299,100738.0,0.156,-0.153,-1.014,-50.0,-55.0,-10.0,-10.925,-2.563,5.004,0.0,0.0,0
880,28.299,100740.0,0.124,-0.171,-0.957,-50.0,-55.0,-10.0,-33.142,10.131,10.192,0.0,0.0,0
881,28.299,100745.0,0.102,-0.209,-0.903,-50.0,-55.0,-10.0,-17.761,3.112,-2.38,0.0,0.0,0
882,28.299,100744.0,0.078,-0.169,-0.823,-50.0,-55.0,-10.0,-8.728,-1.403,7.263,0.0,0.0,0
883,28.299,100749.0,0.078,-0.165,-0.733,-50.0,-55.0,-10.0,12.512,-10.986,6.958,0.0,0.0,0
884,28.299,100738.0,0.055,-0.058,-0.515,-50.0,-55.0,-10.0,-1.831,-15.136,8.85,0.0,0.0,0
885,28.299,100743.0,-0.029,0.079,0.091,-50.0,-55.0,-10.0,-41.503,-25.512,-5.493,0.0,0.0,0
886,28.299,100739.0,-0.042,-0.439,0.961,-50.0,-55.0,-10.0,65.856,73.547,18.798,0.0,0.0,0
887,28.399,100751.0,0.064,0.327,-2.7,-50.0,-55.0,-10.0,161.376,15.747,56.274,0.0,0.0,0
888,28.299,100757.0,0.231,-0.055,-1.729,-50.0,-55.0,-10.0,3.54,32.409,-0.488,0.0,0.0,0
889,28.399,100761.0,0.133,0.039,-1.729,-50.0,-55.0,-10.0,4.577,-10.986,3.662,0.0,0.0,0
890,28.399,100765.0,0.142,-0.026,-1.082,-50.0,-55.0,-10.0,-18.066,-11.84,-5.493,0.0,0.0,0
891,28.399,100756.0,0.09,0.057,-1.084,-50.0,-55.0,-10.0,-2.136,-6.958,1.708,0.0,0.0,0
892,28.399,100747.0,0.121,0.098,-1.076,-50.0,-55.0,-10.0,-0.244,0.0,1.342,0.0,0.0,0
893,28.399,100759.0,0.103,0.054,-1.0,-50.0,-55.0,-10.0,-11.169,-1.953,-5.554,0.0,0.0,0
894,28.399,100755.0,0.093,0.031,-1.087,-50.0,-55.0,-10.0,-9.582,1.831,0.427,0.0,0.0,0
895,28.399,100756.0,0.123,0.062,-1.289,-50.0,-55.0,-10.0,-6.958,1.22,-0.244,0.0,0.0,0
896,28.399,100751.0,0.088,0.077,-1.192,-50.0,-55.0,-10.0,-21.24,8.178,-16.357,0.0,0.0,0
897,28.399,100756.0,0.077,0.031,-1.138,-50.0,-55.0,-10.0,-11.169,12.268,-6.713,0.0,0.0,0
898,28.399,100752.0,0.04,0.022,-1.108,-50.0,-55.0,-10.0,-14.282,-1.892,-4.882,0.0,0.0,0
899,28.399,100752.0,0.031,-0.018,-0.949,-50.0,-55.0,-10.0,3.051,13.61,-4.089,0.0,0.0,0
900,28.399,100756.0,0.063,-0.085,-0.928,-50.0,-55.0,-10.0,-4.577,-2.868,-1.892,0.0,0.0,0
901,28.399,100760.0,0.003,-0.071,-0.814,-50.0,-55.0,-10.0,16.479,4.76,-2.502,0.0,0.0,0
902,28.399,100756.0,0.05,-0.068,-0.808,-50.0,-55.0,-10.0,-8.483,-5.554,-6.225,0.0,0.0,0
903,28.399,100756.0,0.061,-0.044,-0.697,-50.0,-55.0,-10.0,-23.437,-16.113,-3.601,0.0,0.0,0
904,28.399,100752.0,0.077,-0.047,-0.755,-50.0,-55.0,-10.0,-28.503,0.366,-4.333,0.0,0.0,0
905,28.399,100755.0,0.078,-0.044,-0.934,-50.0,-55.0,-10.0,-12.756,0.366,-2.258,0.0,0.0,0
906,28.399,100754.0,0.015,-0.02,-0.932,-50.0,-55.0,-10.0,-1.159,-2.502,-0.61,0.0,0.0,0
907,28.399,100761.0,0.067,-0.037,-0.893,-50.0,-55.0,-10.0,-3.112,-12.695,0.61,0.0,0.0,0
908,28.399,100758.0,0.019,-0.029,-0.916,-50.0,-55.0,-10.0,-2.197,4.577,1.342,0.0,0.0,0
909,28.399,100754.0,0.056,-0.079,-0.913,-50.0,-55.0,-10.0,-7.507,-1.892,-3.967,0.0,0.0,0
910,28.399,100760.0,0.083,-0.06,-0.968,-50.0,-55.0,-10.0,-8.605,-1.342,4.089,0.0,0.0,0
911,28.399,100765.0,0.091,-0.064,-0.91,-50.0,-55.0,-10.0,-9.948,1.953,0.915,0.0,0.0,0
912,28.399,100764.0,0.073,-0.06,-0.914,-50.0,-55.0,-10.0,-9.216,4.821,-1.342,0.0,0.0,0
913,28.399,100760.0,0.084,-0.052,-0.926,-50.0,-55.0,-10.0,3.845,0.366,0.671,0.0,0.0,0
914,28.399,100751.0,0.061,-0.054,-0.895,-50.0,-55.0,-10.0,-2.502,1.586,-3.356,0.0,0.0,0
915,28.399,100746.0,0.057,-0.047,-0.935,-50.0,-55.0,-10.0,-1.831,1.464,-3.784,0.0,0.0,0
916,28.399,100754.0,0.064,-0.037,-0.943,-50.0,-55.0,-10.0,4.272,-2.563,-4.211,0.0,0.0,0
917,28.399,100759.0,0.05,-0.036,-0.958,-50.0,-55.0,-10.0,-1.708,-2.746,-7.141,0.0,0.0,0
918,28.399,100759.0,0.034,-0.046,-0.939,-50.0,-55.0,-10.0,-7.934,-1.22,-4.699,0.0,0.0,0
919,28.399,100758.0,0.023,-0.05,-0.957,-50.0,-55.0,-10.0,-6.225,-1.037,-3.906,0.0,0.0,0
920,28.399,100755.0,0.043,-0.066,-0.93,-50.0,-55.0,-10.0,-6.164,-2.258,-0.122,0.0,0.0,0
921,28.399,100763.0,0.05,-0.06,-0.932,-50.0,-55.0,-10.0,-9.216,-2.563,-2.258,0.0,0.0,0
922,28.399,100765.0,0.042,-0.056,-0.923,-50.0,-55.0,-10.0,-7.995,1.342,-0.122,0.0,0.0,0
923,28.399,100759.0,0.041,-0.065,-0.917,-50.0,-55.0,-10.0,-9.948,-0.122,1.098,0.0,0.0,0
924,28.5,100757.0,0.053,-0.089,-0.918,-50.0,-55.0,-10.0,-6.408,-0.915,3.784,0.0,0.0,0
925,28.5,100761.0,0.044,-0.078,-0.94,-50.0,-55.0,-10.0,-5.493,-3.173,2.319,0.0,0.0,0
926,28.5,100760.0,0.056,-0.067,-0.946,-50.0,-55.0,-10.0,-5.554,-3.051,2.014,0.0,0.0,0
927,28.5,100767.0,0.061,-0.065,-0.941,-50.0,-55.0,-10.0,-6.103,-0.915,-0.671,0.0,0.0,0
928,28.5,100766.0,0.062,-0.072,-0.919,-50.0,-55.0,-10.0,-6.469,-2.563,-0.732,0.0,0.0,0
929,28.5,100762.0,0.059,-0.062,-0.927,-50.0,-55.0,-10.0,-3.601,0.183,-3.051,0.0,0.0,0
930,28.5,100765.0,0.042,-0.07,-0.931,-50.0,-55.0,-10.0,-4.333,1.159,-2.38,0.0,0.0,0
931,28.5,100766.0,0.041,-0.077,-0.928,-50.0,-55.0,-10.0,-2.319,-2.685,1.464,0.0,0.0,0
932,28.5,100773.0,0.049,-0.072,-0.93,-50.0,-55.0,-10.0,-2.502,-0.854,1.892,0.0,0.0,0
933,28.5,100773.0,0.056,-0.076,-0.936,-50.0,-55.0,-10.0,-6.164,0.732,0.305,0.0,0.0,0
934,28.5,100777.0,0.06,-0.073,-0.945,-50.0,-55.0,-10.0,-5.432,-0.122,-0.183,0.0,0.0,0
935,28.5,100778.0,0.063,-0.069,-0.931,-50.0,-55.0,-10.0,-4.211,-0.061,-0.915,0.0,0.0,0
936,28.5,100775.0,0.045,-0.073,-0.93,-50.0,-55.0,-10.0,-5.981,-0.061,0.427,0.0,0.0,0
937,28.5,100773.0,0.05,-0.063,-0.953,-50.0,-55.0,-10.0,-2.99,-2.441,-0.61,0.0,0.0,0
938,28.5,100778.0,0.058,-0.067,-0.955,-50.0,-55.0,-10.0,-2.197,-1.098,-0.305,0.0,0.0,0
939,28.5,100782.0,0.051,-0.064,-0.981,-50.0,-55.0,-10.0,-1.77,-0.915,-0.61,0.0,0.0,0
940,28.5,100780.0,0.063,-0.076,-0.982,-50.0,-55.0,-10.0,-0.488,0.244,-0.427,0.0,0.0,0
941,28.5,100777.0,0.051,-0.065,-1.015,-50.0,-55.0,-10.0,-3.662,-0.305,-1.464,0.0,0.0,0
942,28.5,100777.0,0.053,-0.075,-0.993,-50.0,-55.0,-10.0,-6.652,-0.793,-1.281,0.0,0.0,0
943,28.5,100785.0,0.051,-0.07,-0.983,-50.0,-55.0,-10.0,-4.882,0.366,-0.549,0.0,0.0,0
944,28.5,100787.0,0.045,-0.058,-0.999,-50.0,-55.0,-10.0,-7.202,2.136,0.244,0.0,0.0,0
945,28.5,100783.0,0.034,-0.066,-0.979,-50.0,-55.0,-10.0,-4.455,-0.793,1.342,0.0,0.0,0
946,28.5,100789.0,0.058,-0.062,-0.983,-50.0,-55.0,-10.0,-1.708,-1.464,2.746,0.0,0.0,0
947,28.5,100783.0,0.046,-0.061,-0.999,-50.0,-55.0,-10.0,-3.906,0.61,3.051,0.0,0.0,0
948,28.5,100789.0,0.048,-0.065,-0.982,-50.0,-55.0,-10.0,-4.333,-0.305,1.892,0.0,0.0,0
949,28.5,100790.0,0.049,-0.066,-0.994,-50.0,-55.0,-10.0,-2.441,0.427,1.342,0.0,0.0,0
950,28.5,100793.0,0.046,-0.063,-0.988,-50.0,-55.0,-10.0,-2.38,0.671,0.061,0.0,0.0,0
951,28.5,100795.0,0.037,-0.054,-0.99,-50.0,-55.0,-10.0,-1.22,-1.403,-0.122,0.0,0.0,0
952,28.5,100794.0,0.028,-0.05,-0.994,-50.0,-55.0,-10.0,-2.197,0.61,0.671,0.0,0.0,0
953,28.5,100789.0,0.035,-0.053,-0.993,-50.0,-55.0,-10.0,-1.464,-0.122,-0.122,0.0,0.0,0
954,28.5,100797.0,0.041,-0.05,-0.999,-50.0,-55.0,-10.0,-2.624,-2.014,0.549,0.0,0.0,0
955,28.5,100795.0,0.041,-0.037,-1.01,-50.0,-55.0,-10.0,-2.258,-0.244,0.671,0.0,0.0,0
956,28.5,100795.0,0.036,-0.051,-0.989,-50.0,-55.0,-10.0,-6.896,0.305,-0.122,0.0,0.0,0
957,28.5,100801.0,0.036,-0.042,-0.984,-50.0,-55.0,-10.0,-5.676,-1.037,1.037,0.0,0.0,0
958,28.5,100805.0,0.034,-0.037,-0.994,-50.0,-55.0,-10.0,-3.784,-1.77,1.037,0.0,0.0,0
959,28.5,100806.0,0.035,-0.04,-1.0,-50.0,-55.0,-10.0,-4.821,-1.342,0.732,0.0,0.0,0
960,28.5,100805.0,0.038,-0.043,-1.0,-50.0,-55.0,-10.0,-3.479,-1.831,1.098,0.0,0.0,0
961,28.5,100809.0,0.041,-0.038,-1.0,-50.0,-55.0,-10.0,-3.845,-0.549,1.098,0.0,0.0,0
962,28.5,100812.0,0.041,-0.04,-1.0,-50.0,-55.0,-10.0,-4.089,-1.586,0.793,0.0,0.0,0
963,28.5,100815.0,0.039,-0.044,-0.987,-50.0,-55.0,-10.0,-5.859,-1.464,0.671,0.0,0.0,0
964,28.5,100813.0,0.039,-0.036,-1.0,-50.0,-55.0,-10.0,-3.967,-1.77,-0.122,0.0,0.0,0
965,28.5,100809.0,0.05,-0.037,-0.987,-50.0,-55.0,-10.0,-4.272,-0.732,0.244,0.0,0.0,0
966,28.6,100809.0,0.042,-0.027,-1.013,-50.0,-55.0,-10.0,-4.028,-1.037,0.366,0.0,0.0,0
967,28.5,100811.0,0.036,-0.045,-0.989,-50.0,-55.0,-10.0,-5.493,-0.244,0.793,0.0,0.0,0
968,28.5,100806.0,0.047,-0.034,-0.99,-50.0,-55.0,-10.0,-2.868,-1.403,0.61,0.0,0.0,0
969,28.5,100816.0,0.037,-0.033,-0.999,-50.0,-55.0,-10.0,-4.76,-0.244,-1.159,0.0,0.0,0
970,28.5,100821.0,0.045,-0.031,-0.994,-50.0,-55.0,-10.0,-4.455,-0.549,-0.488,0.0,0.0,0
971,28.6,100823.0,0.041,-0.039,-0.989,-50.0,-55.0,-10.0,-3.784,-0.976,-1.464,0.0,0.0,0
972,28.6,100815.0,0.037,-0.045,-0.997,-50.0,-55.0,-10.0,-5.065,-0.488,-0.488,0.0,0.0,0
973,28.5,100820.0,0.046,-0.037,-0.996,-50.0,-55.0,-10.0,-3.54,-1.586,-0.732,0.0,0.0,0
974,28.6,100818.0,0.037,-0.048,-0.985,-50.0,-55.0,-10.0,-6.347,-0.793,-0.671,0.0,0.0,0
975,28.6,100825.0,0.057,-0.043,-1.001,-50.0,-55.0,-10.0,-2.136,-3.234,2.502,0.0,0.0,0
976,28.6,100834.0,0.028,-0.029,-0.994,-50.0,-55.0,-10.0,-5.31,-1.098,0.793,0.0,0.0,0
977,28.6,100831.0,0.041,-0.045,-1.002,-50.0,-55.0,-10.0,-6.591,-0.366,-0.305,0.0,0.0,0
978,28.6,100835.0,0.035,-0.043,-0.986,-50.0,-55.0,-10.0,-6.774,-0.793,1.037,0.0,0.0,0
979,28.6,100836.0,0.047,-0.034,-0.988,-50.0,-55.0,-10.0,-3.723,-1.831,1.159,0.0,0.0,0
980,28.6,100843.0,0.04,-0.033,-0.987,-50.0,-55.0,-10.0,-6.286,-0.061,-1.098,0.0,0.0,0
981,28.6,100835.0,0.057,-0.045,-0.993,-50.0,-55.0,-10.0,-4.455,0.671,0.488,0.0,0.0,0
982,28.6,100838.0,0.136,-0.014,-1.035,-50.0,-55.0,-10.0,-4.211,0.488,-6.53,0.0,0.0,0
983,28.6,100835.0,0.079,-0.042,-0.976,-50.0,-55.0,-10.0,-12.634,3.54,-17.639,0.0,0.0,0
984,28.6,100833.0,0.006,-0.071,-0.976,-50.0,-55.0,-10.0,-4.516,-4.028,-12.695,0.0,0.0,0
985,28.6,100836.0,-0.013,-0.063,-0.992,-50.0,-55.0,-10.0,-6.652,-7.08,-5.798,0.0,0.0,0
986,28.6,100844.0,0.009,-0.059,-0.98,-50.0,-55.0,-10.0,-3.295,-4.516,-3.051,0.0,0.0,0
987,28.6,100850.0,0.016,-0.057,-0.991,-50.0,-55.0,-10.0,-2.807,-1.647,-1.403,0.0,0.0,0
988,28.6,100844.0,0.017,-0.056,-0.981,-50.0,-55.0,-10.0,-4.455,0.122,0.915,0.0,0.0,0
989,28.6,100844.0,0.033,-0.059,-0.991,-50.0,-55.0,-10.0,-1.77,-1.647,5.981,0.0,0.0,0
990,28.6,100848.0,0.019,-0.055,-1.009,-50.0,-55.0,-10.0,-4.638,1.098,7.629,0.0,0.0,0
991,28.6,100846.0,0.031,-0.051,-1.019,-50.0,-55.0,-10.0,-6.164,2.014,7.324,0.0,0.0,0
992,28.6,100853.0,0.017,-0.053,-1.003,-50.0,-55.0,-10.0,-10.253,1.037,10.253,0.0,0.0,0
993,28.6,100852.0,0.008,-0.065,-0.99,-50.0,-55.0,-10.0,-6.958,2.99,12.207,0.0,0.0,0
994,28.6,100862.0,0.021,-0.054,-1.001,-50.0,-55.0,-10.0,-9.277,2.624,14.587,0.0,0.0,0
995,28.6,100857.0,0.059,-0.045,-0.991,-50.0,-55.0,-10.0,-7.568,0.305,11.23,0.0,0.0,0
996,28.6,100849.0,0.09,-0.06,-0.951,-50.0,-55.0,-10.0,-7.324,0.244,6.347,0.0,0.0,0
997,28.6,100856.0,0.071,-0.055,-0.978,-50.0,-55.0,-10.0,-1.953,-1.464,1.281,0.0,0.0,0
998,28.6,100852.0,0.07,-0.056,-0.987,-50.0,-55.0,-10.0,-1.831,-1.953,0.61,0.0,0.0,0
999,28.6,100856.0,0.062,-0.059,-0.994,-50.0,-55.0,-10.0,-2.929,-2.929,-4.394,0.0,0.0,0
1000,28.6,100862.0,0.052,-0.057,-1.013,-50.0,-55.0,-10.0,-3.479,0.366,-5.432,0.0,0.0,0
1001,28.6,100864.0,0.038,-0.067,-1.021,-50.0,-55.0,-10.0,-5.126,-1.525,-7.202,0.0,0.0,0
1002,28.6,100865.0,0.03,-0.067,-0.979,-50.0,-55.0,-10.0,-6.774,-4.272,-6.958,0.0,0.0,0
1003,28.6,100862.0,0.037,-0.064,-0.977,-50.0,-55.0,-10.0,-2.075,-2.929,-8.666,0.0,0.0,0
1004,28.6,100862.0,0.049,-0.067,-1.014,-50.0,-55.0,-10.0,-4.882,-3.295,-7.446,0.0,0.0,0
1005,28.6,100867.0,0.024,-0.078,-0.981,-50.0,-55.0,-10.0,-8.056,0.061,-6.408,0.0,0.0,0
1006,28.6,100864.0,0.013,-0.081,-0.976,-50.0,-55.0,-10.0,-5.92,-0.793,-2.319,0.0,0.0,0
1007,28.6,100864.0,0.037,-0.073,-0.99,-50.0,-55.0,-10.0,-2.38,-2.746,-0.976,0.0,0.0,0
1008,28.6,100871.0,0.029,-0.089,-0.986,-50.0,-55.0,-10.0,-3.723,-0.061,-3.417,0.0,0.0,0
1009,28.6,100868.0,0.031,-0.084,-0.99,-50.0,-55.0,-10.0,-2.258,0.671,-0.976,0.0,0.0,0
1010,28.6,100870.0,0.014,-0.068,-1.005,-50.0,-55.0,-10.0,-2.929,2.075,3.601,0.0,0.0,0
1011,28.6,100875.0,0.017,-0.061,-1.018,-50.0,-55.0,-10.0,0.488,2.136,2.929,0.0,0.0,0
1012,28.6,100881.0,0.025,-0.066,-1.043,-50.0,-55.0,-10.0,-2.38,-1.586,6.042,0.0,0.0,0
1013,28.6,100880.0,0.018,-0.055,-1.044,-50.0,-55.0,-10.0,-2.99,-0.183,3.173,0.0,0.0,0
1014,28.6,100875.0,0.015,-0.068,-1.079,-50.0,-55.0,-10.0,-4.577,2.685,4.638,0.0,0.0,0
1015,28.6,100874.0,-0.002,-0.063,-1.088,-50.0,-55.0,-10.0,-2.868,-1.22,8.728,0.0,0.0,0
1016,28.6,100883.0,0.013,-0.056,-1.062,-50.0,-55.0,-10.0,-6.591,-0.854,10.375,0.0,0.0,0
1017,28.6,100880.0,0.043,-0.062,-1.061,-50.0,-55.0,-10.0,-5.615,-0.122,5.432,0.0,0.0,0
1018,28.6,100888.0,0.058,-0.052,-1.058,-50.0,-55.0,-10.0,-7.324,0.122,4.028,0.0,0.0,0
1019,28.6,100886.0,0.046,-0.062,-1.061,-50.0,-55.0,-10.0,-5.676,-1.831,3.967,0.0,0.0,0
1020,28.7,100878.0,0.052,-0.058,-1.062,-50.0,-55.0,-10.0,-4.272,-2.868,3.295,0.0,0.0,0
1021,28.6,100875.0,0.044,-0.059,-1.045,-50.0,-55.0,-10.0,-5.432,-0.366,-1.098,0.0,0.0,0
1022,28.6,100887.0,0.046,-0.056,-1.053,-50.0,-55.0,-10.0,-4.15,-0.793,-1.708,0.0,0.0,0
1023,28.6,100888.0,0.046,-0.066,-1.037,-50.0,-55.0,-10.0,-3.234,-0.976,-5.065,0.0,0.0,0
1024,28.7,100886.0,0.064,-0.064,-1.083,-50.0,-55.0,-10.0,-2.807,-3.967,-4.333,0.0,0.0,0
1025,28.7,100893.0,0.049,-0.045,-1.061,-50.0,-55.0,-10.0,-3.601,-1.892,-6.347,0.0,0.0,0
1026,28.7,100894.0,0.024,-0.054,-1.053,-50.0,-55.0,-10.0,-7.324,-0.61,-8.117,0.0,0.0,0
1027,28.7,100890.0,0.017,-0.072,-1.059,-50.0,-55.0,-10.0,-3.967,0.244,-8.544,0.0,0.0,0
1028,28.7,100892.0,0.016,-0.062,-1.089,-50.0,-55.0,-10.0,-5.615,-1.037,-3.601,0.0,0.0,0
1029,28.7,100893.0,-0.002,-0.071,-1.063,-50.0,-55.0,-10.0,-5.249,-0.61,-1.098,0.0,0.0,0
1030,28.7,100896.0,0.002,-0.082,-1.05,-50.0,-55.0,-10.0,-3.295,0.122,3.051,0.0,0.0,0
1031,28.7,100897.0,0.01,-0.065,-1.074,-50.0,-55.0,-10.0,-4.394,-1.831,4.882,0.0,0.0,0
1032,28.7,100897.0,0.025,-0.063,-1.065,-50.0,-55.0,-10.0,-3.845,1.403,1.953,0.0,0.0,0
1033,28.7,100897.0,0.033,-0.066,-1.073,-50.0,-55.0,-10.0,-4.577,-0.183,1.159,0.0,0.0,0
1034,28.7,100897.0,0.019,-0.064,-1.072,-50.0,-55.0,-10.0,-4.943,-0.549,1.342,0.0,0.0,0
1035,28.7,100894.0,0.017,-0.066,-1.052,-50.0,-55.0,-10.0,-4.577,-1.22,1.281,0.0,0.0,0
1036,28.7,100897.0,0.036,-0.055,-1.056,-50.0,-55.0,-10.0,-3.356,-2.929,0.549,0.0,0.0,0
1037,28.7,100892.0,0.042,-0.059,-1.045,-50.0,-55.0,-10.0,-5.432,-0.976,-2.197,0.0,0.0,0
1038,28.7,100885.0,0.03,-0.064,-1.047,-50.0,-55.0,-10.0,-4.577,-1.77,-1.708,0.0,0.0,0
1039,28.7,100897.0,0.025,-0.063,-1.047,-50.0,-55.0,-10.0,-4.516,-1.708,-0.915,0.0,0.0,0
1040,28.7,100895.0,0.033,-0.067,-1.02,-50.0,-55.0,-10.0,-4.15,-2.075,-0.671,0.0,0.0,0
1041,28.7,100893.0,0.033,-0.061,-1.029,-50.0,-55.0,-10.0,-5.065,-1.159,-0.976,0.0,0.0,0
1042,28.7,100898.0,0.028,-0.056,-1.031,-50.0,-55.0,-10.0,-7.995,1.525,-1.647,0.0,0.0,0
1043,28.7,100892.0,0.04,-0.068,-1.005,-50.0,-55.0,-10.0,-6.408,0.061,-1.159,0.0,0.0,0
1044,28.7,100898.0,0.033,-0.061,-1.009,-50.0,-55.0,-10.0,-5.126,0.61,-1.586,0.0,0.0,0
1045,28.7,100895.0,0.024,-0.069,-0.992,-50.0,-55.0,-10.0,-6.286,0.854,-0.549,0.0,0.0,0
1046,28.7,100902.0,0.013,-0.062,-1.008,-50.0,-55.0,-10.0,-5.004,-0.976,-0.244,0.0,0.0,0
1047,28.7,100898.0,0.008,-0.062,-0.975,-50.0,-55.0,-10.0,-9.46,0.671,1.647,0.0,0.0,0
1048,28.7,100897.0,0.016,-0.071,-0.994,-50.0,-55.0,-10.0,0.427,-3.051,2.624,0.0,0.0,0
1049,28.7,100906.0,0.021,-0.076,-0.999,-50.0,-55.0,-10.0,-4.272,-1.77,1.464,0.0,0.0,0
1050,28.7,100901.0,0.013,-0.061,-1.007,-50.0,-55.0,-10.0,-5.676,-2.197,1.586,0.0,0.0,0
1051,28.7,100900.0,0.025,-0.072,-0.979,-50.0,-55.0,-10.0,-5.065,-1.586,2.685,0.0,0.0,0
1052,28.7,100900.0,0.027,-0.069,-1.006,-50.0,-55.0,-10.0,-4.028,0.793,0.305,0.0,0.0,0
1053,28.7,100901.0,0.015,-0.075,-1.002,-50.0,-55.0,-10.0,-5.004,0.366,-0.976,0.0,0.0,0
1054,28.7,100894.0,0.02,-0.074,-0.991,-50.0,-55.0,-10.0,-6.713,-0.793,1.403,0.0,0.0,0
1055,28.7,100899.0,0.02,-0.071,-0.987,-50.0,-55.0,-10.0,-4.211,-0.671,1.342,0.0,0.0,0
1056,28.7,100900.0,0.031,-0.084,-0.997,-50.0,-55.0,-10.0,-6.591,-0.61,1.403,0.0,0.0,0
1057,28.7,100894.0,0.034,-0.066,-0.996,-50.0,-55.0,-10.0,-2.99,-2.38,0.793,0.0,0.0,0
1058,28.7,100896.0,0.039,-0.06,-0.987,-50.0,-55.0,-10.0,-7.08,0.854,-0.976,0.0,0.0,0
1059,28.7,100887.0,0.029,-0.072,-0.995,-50.0,-55.0,-10.0,-5.981,0.732,-1.525,0.0,0.0,0
1060,28.7,100891.0,0.017,-0.076,-0.987,-50.0,-55.0,-10.0,-3.845,-0.61,0.427,0.0,0.0,0
1061,28.7,100892.0,0.024,-0.073,-1.0,-50.0,-55.0,-10.0,-4.577,-1.22,0.915,0.0,0.0,0
1062,28.7,100899.0,0.027,-0.083,-0.995,-50.0,-55.0,-10.0,-3.906,-3.356,1.525,0.0,0.0,0
1063,28.7,100909.0,0.037,-0.09,-0.976,-50.0,-55.0,-10.0,-5.187,-1.77,0.122,0.0,0.0,0
1064,28.7,100900.0,0.04,-0.069,-1.009,-50.0,-55.0,-10.0,-3.479,-2.441,-2.258,0.0,0.0,0
1065,28.7,100901.0,0.041,-0.083,-0.976,-50.0,-55.0,-10.0,-6.286,-1.281,-3.295,0.0,0.0,0
1066,28.7,100897.0,0.037,-0.091,-0.992,-50.0,-55.0,-10.0,-5.554,-2.99,-4.211,0.0,0.0,0
1067,28.7,100882.0,0.008,-0.089,-1.002,-50.0,-55.0,-10.0,-4.272,-2.136,-5.493,0.0,0.0,0
1068,28.7,100882.0,0.021,-0.093,-0.98,-50.0,-55.0,-10.0,-2.075,-5.798,-3.356,0.0,0.0,0
1069,28.7,100882.0,0.027,-0.088,-1.0,-50.0,-55.0,-10.0,0.366,-6.103,-8.239,0.0,0.0,0
1070,28.7,100873.0,0.028,-0.103,-0.988,-50.0,-55.0,-10.0,-4.516,-2.258,-11.413,0.0,0.0,0
1071,28.7,100873.0,0.036,-0.112,-0.977,-50.0,-55.0,-10.0,-4.089,-2.99,-12.512,0.0,0.0,0
1072,28.7,100876.0,0.044,-0.099,-1.003,-50.0,-55.0,-10.0,-1.953,-5.31,-14.892,0.0,0.0,0
1073,28.7,100879.0,0.057,-0.092,-1.0,-50.0,-55.0,-10.0,-1.708,-1.892,-15.197,0.0,0.0,0
1074,28.799,100873.0,0.046,-0.073,-0.995,-50.0,-55.0,-10.0,-2.807,-4.76,-16.418,0.0,0.0,0
1075,28.7,100881.0,0.063,-0.085,-0.951,-50.0,-55.0,-10.0,-6.103,-2.563,-13.122,0.0,0.0,0
1076,28.7,100876.0,0.027,-0.047,-1.013,-50.0,-55.0,-10.0,6.164,-3.906,-20.568,0.0,0.0,0
1077,28.799,100874.0,0.067,-0.055,-0.988,-50.0,-55.0,-10.0,-5.249,-1.464,-19.653,0.0,0.0,0
1078,28.799,100873.0,0.079,-0.054,-0.973,-50.0,-55.0,-10.0,-6.042,-6.835,-23.559,0.0,0.0,0
1079,28.799,100884.0,0.094,-0.052,-0.983,-50.0,-55.0,-10.0,-1.892,-2.746,-18.31,0.0,0.0,0
1080,28.799,100886.0,0.091,-0.07,-0.977,-50.0,-55.0,-10.0,2.624,3.54,-11.169,0.0,0.0,0
1081,28.799,100878.0,0.113,-0.089,-0.97,-50.0,-55.0,-10.0,0.0,-0.854,-16.235,0.0,0.0,0
1082,28.799,100886.0,0.15,-0.089,-0.958,-50.0,-55.0,-10.0,-0.61,1.953,-15.93,0.0,0.0,0
1083,28.799,100886.0,0.117,-0.059,-0.971,-50.0,-55.0,-10.0,1.708,0.488,-12.329,0.0,0.0,0
1084,28.799,100884.0,0.117,-0.07,-0.983,-50.0,-55.0,-10.0,-3.479,6.286,-13.061,0.0,0.0,0
1085,28.799,100887.0,0.067,-0.034,-1.044,-50.0,-55.0,-10.0,-0.488,1.892,-7.446,0.0,0.0,0
1086,28.799,100881.0,0.057,-0.048,-1.009,-50.0,-55.0,-10.0,-9.948,-6.408,-12.817,0.0,0.0,0
1087,28.799,100884.0,0.028,-0.024,-1.065,-50.0,-55.0,-10.0,-9.765,-2.624,-12.573,0.0,0.0,0
1088,28.799,100886.0,0.042,-0.038,-1.042,-50.0,-55.0,-10.0,1.831,-11.84,-8.239,0.0,0.0,0
1089,28.799,100879.0,0.05,-0.043,-0.98,-50.0,-55.0,-10.0,-5.676,-6.408,-20.263,0.0,0.0,0
1090,28.799,100877.0,0.034,-0.083,-0.954,-50.0,-55.0,-10.0,-8.85,1.281,-19.531,0.0,0.0,0
1091,28.799,100878.0,0.031,-0.093,-0.969,-50.0,-55.0,-10.0,-10.131,1.77,-15.014,0.0,0.0,0
1092,28.799,100884.0,0.037,-0.08,-0.963,-50.0,-55.0,-10.0,2.563,-4.943,-14.038,0.0,0.0,0
1093,28.799,100877.0,0.064,-0.06,-1.006,-50.0,-55.0,-10.0,3.601,-8.85,-15.319,0.0,0.0,0
1094,28.799,100877.0,0.035,-0.049,-0.958,-50.0,-55.0,-10.0,-11.779,-0.793,-20.263,0.0,0.0,0
1095,28.799,100883.0,0.037,-0.01,-1.047,-50.0,-55.0,-10.0,10.192,9.46,-25.329,0.0,0.0,0
1096,28.799,100879.0,0.076,-0.067,-0.933,-50.0,-55.0,-10.0,-8.789,-9.094,-35.522,0.0,0.0,0
1097,28.799,100875.0,0.054,0.003,-1.023,-50.0,-55.0,-10.0,5.126,10.681,-32.47,0.0,0.0,0
1098,28.799,100882.0,0.087,-0.03,-0.968,-50.0,-55.0,-10.0,0.854,-5.92,-26.794,0.0,0.0,0
1099,28.799,100881.0,0.116,-0.054,-0.902,-50.0,-55.0,-10.0,-7.019,-2.075,-29.907,0.0,0.0,0
1100,28.799,100881.0,0.058,-0.03,-0.994,-50.0,-55.0,-10.0,-3.356,2.807,-13.244,0.0,0.0,0
1101,28.799,100879.0,0.071,-0.02,-1.017,-50.0,-55.0,-10.0,-8.178,-6.042,0.488,0.0,0.0,0
1102,28.799,100880.0,0.053,-0.083,-0.983,-50.0,-55.0,-10.0,-19.348,-3.295,-0.549,0.0,0.0,0
1103,28.799,100881.0,0.048,0.018,-1.21,-50.0,-55.0,-10.0,2.197,16.662,20.08,0.0,0.0,0
1104,28.799,100884.0,0.051,-0.111,-0.857,-50.0,-55.0,-10.0,-17.517,-9.46,3.784,0.0,0.0,0
1105,28.799,100881.0,0.001,0.051,-1.094,-50.0,-55.0,-10.0,10.742,0.061,-3.295,0.0,0.0,0
1106,28.799,100888.0,0.02,-0.061,-0.928,-50.0,-55.0,-10.0,-7.873,-4.638,-13.916,0.0,0.0,0
1107,28.799,100882.0,0.108,-0.08,-0.871,-50.0,-55.0,-10.0,-9.765,4.028,-1.037,0.0,0.0,0
1108,28.799,100887.0,0.07,-0.019,-1.02,-50.0,-55.0,-10.0,8.178,-10.437,-10.009,0.0,0.0,0
1109,28.799,100883.0,0.131,-0.065,-0.946,-50.0,-55.0,-10.0,-17.089,-5.554,-21.789,0.0,0.0,0
1110,28.799,100887.0,0.132,-0.026,-1.035,-50.0,-55.0,-10.0,-6.347,-3.295,-29.541,0.0,0.0,0
1111,28.799,100884.0,0.082,-0.076,-0.995,-50.0,-55.0,-10.0,-9.765,5.126,-32.165,0.0,0.0,0
1112,28.799,100876.0,0.085,0.066,-1.055,-50.0,-55.0,-10.0,23.132,-19.531,-59.082,0.0,0.0,0
1113,28.799,100878.0,0.067,-0.011,-0.995,-50.0,-55.0,-10.0,-1.647,10.62,-38.146,0.0,0.0,0
1114,28.799,100881.0,0.112,-0.018,-0.938,-50.0,-55.0,-10.0,0.549,8.361,-41.564,0.0,0.0,0
1115,28.799,100884.0,0.095,-0.001,-0.954,-50.0,-55.0,-10.0,5.554,-4.333,-44.982,0.0,0.0,0
1116,28.799,100890.0,0.05,-0.027,-0.952,-50.0,-55.0,-10.0,-18.493,7.568,-25.268,0.0,0.0,0
1117,28.799,100881.0,0.067,0.021,-1.066,-50.0,-55.0,-10.0,-4.943,-9.46,-15.991,0.0,0.0,0
1118,28.799,100873.0,0.051,-0.033,-1.073,-50.0,-55.0,-10.0,-0.488,-2.624,-11.901,0.0,0.0,0
1119,28.799,100883.0,0.035,0.068,-1.123,-50.0,-55.0,-10.0,3.295,-22.46,-19.47,0.0,0.0,0
1120,28.799,100881.0,-0.007,0.009,-1.023,-50.0,-55.0,-10.0,4.821,-0.671,-11.535,0.0,0.0,0
1121,28.799,100889.0,0.022,-0.042,-0.921,-50.0,-55.0,-10.0,8.972,-7.69,-31.311,0.0,0.0,0
1122,28.799,100882.0,0.031,-0.042,-0.912,-50.0,-55.0,-10.0,-10.437,0.183,-25.39,0.0,0.0,0
1123,28.799,100877.0,0.038,-0.065,-0.962,-50.0,-55.0,-10.0,-8.117,-4.699,-19.531,0.0,0.0,0
1124,28.799,100886.0,0.077,-0.095,-0.939,-50.0,-55.0,-10.0,-13.732,-8.178,-22.094,0.0,0.0,0
1125,28.799,100887.0,0.094,-0.083,-1.046,-50.0,-55.0,-10.0,-3.906,-5.004,-28.747,0.0,0.0,0
1126,28.799,100883.0,0.133,-0.065,-1.079,-50.0,-55.0,-10.0,-0.061,6.347,-19.592,0.0,0.0,0
1127,28.799,100884.0,0.072,-0.027,-0.929,-50.0,-55.0,-10.0,-6.225,-9.582,-51.635,0.0,0.0,0
1128,28.799,100887.0,0.055,0.027,-1.095,-50.0,-55.0,-10.0,3.906,29.663,-27.893,0.0,0.0,0
1129,28.799,100879.0,0.071,-0.019,-0.944,-50.0,-55.0,-10.0,-1.831,-3.356,-31.677,0.0,0.0,0
1130,28.799,100879.0,0.055,-0.02,-0.889,-50.0,-55.0,-10.0,-10.253,-4.394,-29.113,0.0,0.0,0
1131,28.799,100872.0,0.062,-0.036,-0.956,-50.0,-55.0,-10.0,-12.39,-7.812,-19.958,0.0,0.0,0
1132,28.799,100885.0,0.057,-0.017,-1.063,-50.0,-55.0,-10.0,-12.39,-2.441,6.347,0.0,0.0,0
1133,28.799,100876.0,0.016,-0.098,-1.027,-50.0,-55.0,-10.0,5.981,-0.061,12.878,0.0,0.0,0
1134,28.799,100882.0,0.051,-0.028,-1.059,-50.0,-55.0,-10.0,4.15,-13.732,-2.38,0.0,0.0,0
1135,28.799,100884.0,-0.007,-0.006,-1.082,-50.0,-55.0,-10.0,9.521,4.516,-3.234,0.0,0.0,0
1136,28.799,100883.0,0.017,-0.037,-0.961,-50.0,-55.0,-10.0,0.732,-8.911,-8.605,0.0,0.0,0
1137,28.799,100883.0,0.036,-0.088,-0.874,-50.0,-55.0,-10.0,-17.639,-8.789,-3.173,0.0,0.0,0
1138,28.799,100884.0,0.045,-0.098,-0.892,-50.0,-55.0,-10.0,-9.582,-8.3,-3.662,0.0,0.0,0
1139,28.799,100885.0,0.09,-0.141,-0.94,-50.0,-55.0,-10.0,-18.188,-10.07,-9.643,0.0,0.0,0
1140,28.799,100890.0,0.057,-0.083,-1.077,-50.0,-55.0,-10.0,5.981,-0.305,-6.347,0.0,0.0,0
1141,28.799,100889.0,0.074,-0.005,-1.209,-50.0,-55.0,-10.0,20.446,11.108,-3.906,0.0,0.0,0
1142,28.799,100886.0,0.139,-0.091,-0.979,-50.0,-55.0,-10.0,2.441,-0.549,-10.864,0.0,0.0,0
1143,28.799,100881.0,0.098,0.007,-0.944,-50.0,-55.0,-10.0,4.638,10.681,-20.69,0.0,0.0,0
1144,28.799,100886.0,0.128,0.0,-0.906,-50.0,-55.0,-10.0,-10.498,5.92,-10.375,0.0,0.0,0
1145,28.799,100880.0,0.038,-0.028,-0.894,-50.0,-55.0,-10.0,-18.981,6.713,-8.911,0.0,0.0,0
1146,28.799,100885.0,0.043,-0.012,-0.978,-50.0,-55.0,-10.0,-37.292,-2.746,6.164,0.0,0.0,0
1147,28.799,100883.0,0.041,-0.031,-1.121,-50.0,-55.0,-10.0,-15.197,-6.713,11.169,0.0,0.0,0
1148,28.799,100883.0,0.053,-0.043,-1.105,-50.0,-55.0,-10.0,7.751,-9.277,10.192,0.0,0.0,0
1149,28.799,100880.0,-0.024,0.011,-1.09,-50.0,-55.0,-10.0,9.338,-2.624,9.521,0.0,0.0,0
1150,28.799,100888.0,0.065,-0.045,-0.938,-50.0,-55.0,-10.0,4.943,1.342,5.676,0.0,0.0,0
1151,28.799,100879.0,0.048,-0.077,-0.79,-50.0,-55.0,-10.0,-13.183,-2.624,21.972,0.0,0.0,0
1152,28.799,100881.0,0.047,-0.031,-0.949,-50.0,-55.0,-10.0,-2.502,3.173,21.667,0.0,0.0,0
1153,28.799,100883.0,0.072,-0.118,-0.874,-50.0,-55.0,-10.0,-6.042,-4.577,14.282,0.0,0.0,0
1154,28.799,100893.0,0.052,-0.017,-0.972,-50.0,-55.0,-10.0,-3.906,-8.3,-12.145,0.0,0.0,0
1155,28.799,100884.0,0.127,-0.048,-1.123,-50.0,-55.0,-10.0,4.028,15.014,-13.244,0.0,0.0,0
1156,28.799,100890.0,0.136,0.007,-1.056,-50.0,-55.0,-10.0,-0.793,-15.991,-30.334,0.0,0.0,0
1157,28.799,100884.0,0.069,0.058,-1.021,-50.0,-55.0,-10.0,9.948,2.624,-27.526,0.0,0.0,0
1158,28.799,100890.0,0.145,-0.001,-0.85,-50.0,-55.0,-10.0,-0.549,-9.765,-16.723,0.0,0.0,0
1159,28.799,100890.0,0.109,-0.01,-0.875,-50.0,-55.0,-10.0,-17.578,1.464,-2.014,0.0,0.0,0
1160,28.799,100888.0,0.074,-0.008,-1.0,-50.0,-55.0,-10.0,-25.878,-0.793,3.417,0.0,0.0,0
1161,28.799,100885.0,0.115,-0.05,-1.048,-50.0,-55.0,-10.0,-23.132,-11.962,36.071,0.0,0.0,0
1162,28.799,100889.0,0.093,-0.034,-1.123,-50.0,-55.0,-10.0,17.15,-10.07,28.564,0.0,0.0,0
1163,28.799,100888.0,0.09,-0.086,-1.083,-50.0,-55.0,-10.0,7.202,-24.719,23.925,0.0,0.0,0
1164,28.799,100883.0,0.02,-0.021,-1.08,-50.0,-55.0,-10.0,1.098,-3.906,32.287,0.0,0.0,0
1165,28.799,100883.0,0.081,-0.087,-0.855,-50.0,-55.0,-10.0,8.85,-7.995,37.109,0.0,0.0,0
1166,28.799,100888.0,0.069,-0.076,-0.839,-50.0,-55.0,-10.0,-21.362,-7.446,36.132,0.0,0.0,0
1167,28.799,100882.0,0.12,-0.19,-0.873,-50.0,-55.0,-10.0,-36.315,1.525,58.776,0.0,0.0,0
1168,28.799,100883.0,0.209,-0.104,-0.931,-50.0,-55.0,-10.0,-40.466,-25.024,39.367,0.0,0.0,0
1169,28.799,100876.0,0.145,-0.14,-1.02,-50.0,-55.0,-10.0,5.798,21.179,52.673,0.0,0.0,0
1170,28.799,100881.0,0.173,-0.021,-1.113,-50.0,-55.0,-10.0,1.892,9.094,39.062,0.0,0.0,0
1171,28.799,100880.0,0.132,0.031,-0.965,-50.0,-55.0,-10.0,17.089,3.234,38.94,0.0,0.0,0
1172,28.799,100883.0,0.029,0.06,-1.041,-50.0,-55.0,-10.0,-6.896,11.108,36.926,0.0,0.0,0
1173,28.799,100887.0,0.043,0.016,-0.977,-50.0,-55.0,-10.0,-9.277,1.403,53.588,0.0,0.0,0
1174,28.799,100883.0,0.103,0.05,-0.87,-50.0,-55.0,-10.0,-4.394,1.464,52.307,0.0,0.0,0
1175,28.799,100885.0,0.062,0.08,-0.903,-50.0,-55.0,-10.0,-15.808,-8.972,46.936,0.0,0.0,0
1176,28.799,100876.0,0.101,0.003,-0.82,-50.0,-55.0,-10.0,-0.305,-8.117,68.054,0.0,0.0,0
1177,28.799,100883.0,0.004,-0.013,-1.01,-50.0,-55.0,-10.0,-7.995,4.455,56.213,0.0,0.0,0
1178,28.799,100880.0,-0.001,0.005,-0.875,-50.0,-55.0,-10.0,-28.259,-23.803,58.288,0.0,0.0,0
1179,28.799,100886.0,0.056,-0.005,-0.871,-50.0,-55.0,-10.0,-9.704,-1.953,41.198,0.0,0.0,0
1180,28.799,100885.0,0.043,-0.048,-0.925,-50.0,-55.0,-10.0,4.272,16.662,49.621,0.0,0.0,0
1181,28.799,100886.0,0.047,0.0,-0.909,-50.0,-55.0,-10.0,-8.056,-6.835,44.311,0.0,0.0,0
1182,28.799,100890.0,0.202,0.058,-0.954,-50.0,-55.0,-10.0,11.901,16.54,40.1,0.0,0.0,0
1183,28.799,100890.0,0.129,0.044,-0.9,-50.0,-55.0,-10.0,22.827,7.08,38.208,0.0,0.0,0
1184,28.799,100884.0,0.044,0.099,-0.991,-50.0,-55.0,-10.0,-26.733,-17.15,23.132,0.0,0.0,0
1185,28.799,100887.0,0.095,0.061,-0.912,-50.0,-55.0,-10.0,-29.785,16.235,16.418,0.0,0.0,0
1186,28.799,100894.0,0.125,0.019,-1.034,-50.0,-55.0,-10.0,-20.874,-8.789,16.052,0.0,0.0,0
1187,28.799,100885.0,0.016,0.076,-1.007,-50.0,-55.0,-10.0,-11.352,9.033,17.15,0.0,0.0,0
1188,28.799,100891.0,0.106,0.003,-1.011,-50.0,-55.0,-10.0,-15.808,15.014,33.691,0.0,0.0,0
1189,28.799,100893.0,-0.037,0.075,-1.083,-50.0,-55.0,-10.0,-41.442,-21.362,10.925,0.0,0.0,0
1190,28.799,100891.0,0.108,0.032,-1.198,-50.0,-55.0,-10.0,-15.563,-44.86,10.62,0.0,0.0,0
1191,28.799,100891.0,-0.05,-0.024,-1.133,-50.0,-55.0,-10.0,4.821,18.005,11.657,0.0,0.0,0
1192,28.799,100893.0,0.074,-0.12,-1.131,-50.0,-55.0,-10.0,-32.165,-37.963,26.733,0.0,0.0,0
1193,28.799,100891.0,0.006,-0.201,-1.15,-50.0,-55.0,-10.0,0.244,60.241,14.343,0.0,0.0,0
1194,28.799,100899.0,-0.021,0.076,-0.978,-50.0,-55.0,-10.0,20.751,12.756,27.709,0.0,0.0,0
1195,28.799,100887.0,0.002,0.056,-1.04,-50.0,-55.0,-10.0,-24.353,6.53,19.653,0.0,0.0,0
1196,28.799,100898.0,0.129,-0.093,-1.162,-50.0,-55.0,-10.0,1.098,91.308,-15.258,0.0,0.0,0
1197,28.799,100889.0,0.059,-0.168,-1.182,-50.0,-55.0,-10.0,-41.564,-66.345,-1.647,0.0,0.0,0
1198,28.799,100886.0,0.146,-0.145,-0.981,-50.0,-55.0,-10.0,-26.367,-35.156,19.287,0.0,0.0,0
1199,28.799,100888.0,0.107,-0.085,-0.914,-50.0,-55.0,-10.0,5.615,3.173,12.451,0.0,0.0,0
1200,28.799,100888.0,0.108,-0.004,-0.946,-50.0,-55.0,-10.0,7.69,4.394,9.521,0.0,0.0,0
1201,28.799,100893.0,0.074,-0.309,-1.246,-50.0,-55.0,-10.0,-38.818,-54.26,-1.037,0.0,0.0,0
1202,28.799,100887.0,0.027,-0.089,-0.882,-50.0,-55.0,-10.0,-6.408,-0.061,0.61,0.0,0.0,0
1203,28.799,100894.0,-0.013,-0.015,-0.993,-50.0,-55.0,-10.0,-4.577,-1.342,-0.183,0.0,0.0,0
1204,28.799,100900.0,-0.003,-0.003,-0.985,-50.0,-55.0,-10.0,-4.394,-1.342,-2.502,0.0,0.0,0
1205,28.799,100891.0,0.006,-0.013,-1.017,-50.0,-55.0,-10.0,-5.004,-2.014,-0.549,0.0,0.0,0
1206,28.799,100895.0,-0.004,-0.001,-0.995,-50.0,-55.0,-10.0,-4.333,-0.854,0.244,0.0,0.0,0
1207,28.799,100891.0,-0.006,-0.006,-0.991,-50.0,-55.0,-10.0,-4.577,-0.976,0.183,0.0,0.0,0
1208,28.799,100901.0,-0.008,-0.005,-0.993,-50.0,-55.0,-10.0,-4.455,-0.976,0.183,0.0,0.0,0
1209,28.799,100893.0,-0.009,-0.004,-0.997,-50.0,-55.0,-10.0,-4.394,-0.793,0.305,0.0,0.0,0
1210,28.799,100884.0,-0.01,-0.005,-0.994,-50.0,-55.0,-10.0,-4.455,-0.915,0.183,0.0,0.0,0
1211,28.799,100886.0,-0.005,-0.004,-0.99,-50.0,-55.0,-10.0,-4.333,-0.915,-0.061,0.0,0.0,0
1212,28.799,100886.0,-0.006,-0.004,-0.998,-50.0,-55.0,-10.0,-4.577,-0.854,0.183,0.0,0.0,0
1213,28.799,100887.0,-0.006,-0.005,-0.999,-50.0,-55.0,-10.0,-4.577,-1.159,0.366,0.0,0.0,0
1214,28.799,100882.0,-0.011,-0.006,-0.995,-50.0,-55.0,-10.0,-4.638,-1.037,0.244,0.0,0.0,0
1215,28.799,100886.0,-0.004,-0.006,-0.999,-50.0,-55.0,-10.0,-4.699,-0.732,0.305,0.0,0.0,0
1216,28.799,100886.0,-0.006,-0.004,-0.998,-50.0,-55.0,-10.0,-4.394,-1.037,0.366,0.0,0.0,0
1217,28.799,100888.0,-0.009,-0.002,-0.994,-50.0,-55.0,-10.0,-4.699,-1.037,0.122,0.0,0.0,0
1218,28.799,100899.0,-0.007,-0.004,-0.994,-50.0,-55.0,-10.0,-4.699,-1.281,0.122,0.0,0.0,0
1219,28.799,100900.0,-0.012,-0.009,-0.989,-50.0,-55.0,-10.0,-4.577,-0.915,0.244,0.0,0.0,0
1220,28.799,100895.0,-0.009,-0.003,-0.993,-50.0,-55.0,-10.0,-4.333,-0.793,0.244,0.0,0.0,0
1221,28.799,100894.0,-0.006,-0.006,-0.995,-50.0,-55.0,-10.0,-4.699,-1.098,0.305,0.0,0.0,0
1222,28.799,100891.0,-0.006,-0.007,-0.997,-50.0,-55.0,-10.0,-4.577,-1.037,0.305,0.0,0.0,0
1223,28.799,100887.0,-0.001,-0.006,-0.991,-50.0,-55.0,-10.0,-4.516,-0.854,0.061,0.0,0.0,0
1224,28.799,100895.0,-0.002,-0.006,-1.001,-50.0,-55.0,-10.0,-4.516,-0.976,0.305,0.0,0.0,0
1225,28.799,100896.0,-0.007,-0.005,-0.993,-50.0,-55.0,-10.0,-4.577,-0.915,0.122,0.0,0.0,0
1226,28.799,100894.0,-0.008,-0.005,-0.993,-50.0,-55.0,-10.0,-4.394,-1.037,0.366,0.0,0.0,0
1227,28.799,100894.0,-0.009,-0.005,-0.994,-50.0,-55.0,-10.0,-4.516,-0.976,0.366,0.0,0.0,0
1228,28.799,100897.0,-0.008,-0.007,-0.998,-50.0,-55.0,-10.0,-4.638,-0.854,0.305,0.0,0.0,0
1229,28.799,100891.0,-0.005,-0.01,-0.997,-50.0,-55.0,-10.0,-4.455,-0.793,0.427,0.0,0.0,0
1230,28.799,100897.0,-0.007,-0.005,-0.997,-50.0,-55.0,-10.0,-4.516,-0.915,0.305,0.0,0.0,0
1231,28.799,100894.0,-0.007,-0.006,-0.988,-50.0,-55.0,-10.0,-4.516,-1.159,0.183,0.0,0.0,0
1232,28.799,100890.0,-0.004,-0.002,-0.995,-50.0,-55.0,-10.0,-4.638,-0.793,0.366,0.0,0.0,0
1233,28.799,100896.0,-0.005,-0.004,-0.999,-50.0,-55.0,-10.0,-4.455,-1.098,0.427,0.0,0.0,0
1234,28.799,100893.0,-0.008,-0.005,-0.994,-50.0,-55.0,-10.0,-4.76,-1.098,0.244,0.0,0.0,0
1235,28.799,100891.0,-0.006,-0.005,-0.995,-50.0,-55.0,-10.0,-4.577,-0.793,0.244,0.0,0.0,0
1236,28.799,100891.0,-0.008,-0.003,-0.997,-50.0,-55.0,-10.0,-4.577,-0.915,0.366,0.0,0.0,0
1237,28.799,100891.0,-0.01,-0.005,-0.998,-50.0,-55.0,-10.0,-4.699,-0.854,0.366,0.0,0.0,0
1238,28.799,100888.0,-0.003,-0.006,-0.992,-50.0,-55.0,-10.0,-4.394,-1.098,0.366,0.0,0.0,0
1239,28.799,100886.0,-0.008,-0.003,-0.994,-50.0,-55.0,-10.0,-4.638,-1.037,0.488,0.0,0.0,0
1240,28.799,100880.0,-0.009,-0.007,-0.999,-50.0,-55.0,-10.0,-4.455,-0.915,0.427,0.0,0.0,0
1241,28.799,100883.0,-0.009,-0.007,-0.995,-50.0,-55.0,-10.0,-4.333,-0.793,0.366,0.0,0.0,0
1242,28.799,100895.0,-0.003,-0.006,-0.998,-50.0,-55.0,-10.0,-4.882,-0.793,0.244,0.0,0.0,0
1243,28.799,100893.0,-0.012,-0.003,-0.996,-50.0,-55.0,-10.0,-4.638,-0.976,0.366,0.0,0.0,0
1244,28.799,100889.0,-0.005,-0.007,-0.994,-50.0,-55.0,-10.0,-4.516,-0.915,0.549,0.0,0.0,0
1245,28.799,100883.0,-0.006,-0.005,-0.992,-50.0,-55.0,-10.0,-4.333,-0.915,0.122,0.0,0.0,0
1246,28.799,100889.0,-0.008,-0.006,-0.994,-50.0,-55.0,-10.0,-4.699,-0.915,0.366,0.0,0.0,0
1247,28.799,100896.0,-0.004,-0.005,-0.99,-50.0,-55.0,-10.0,-4.699,-0.915,0.427,0.0,0.0,0
1248,28.799,100892.0,-0.009,-0.006,-0.996,-50.0,-55.0,-10.0,-4.455,-1.159,0.183,0.0,0.0,0
1249,28.799,100894.0,-0.01,-0.006,-0.997,-50.0,-55.0,-10.0,-4.699,-0.915,0.305,0.0,0.0,0
1250,28.799,100893.0,-0.005,-0.008,-0.994,-50.0,-55.0,-10.0,-4.455,-0.793,0.305,0.0,0.0,0
1251,28.799,100893.0,-0.009,-0.004,-0.993,-50.0,-55.0,-10.0,-4.455,-1.159,0.427,0.0,0.0,0
1252,28.799,100888.0,-0.009,-0.002,-0.999,-50.0,-55.0,-10.0,-4.455,-0.793,0.305,0.0,0.0,0
1253,28.799,100892.0,-0.007,-0.001,-0.993,-50.0,-55.0,-10.0,-4.638,-1.037,0.366,0.0,0.0,0
1254,28.799,100890.0,-0.003,-0.008,-1.004,-50.0,-55.0,-10.0,-4.76,-0.976,0.061,0.0,0.0,0
1255,28.799,100901.0,-0.006,-0.004,-0.997,-50.0,-55.0,-10.0,-4.455,-0.976,0.061,0.0,0.0,0
1256,28.799,100897.0,-0.004,-0.004,-0.996,-50.0,-55.0,-10.0,-4.699,-0.854,0.122,0.0,0.0,0
1257,28.799,100897.0,-0.01,-0.006,-0.992,-50.0,-55.0,-10.0,-4.516,-1.098,0.305,0.0,0.0,0
1258,28.799,100890.0,-0.008,-0.006,-0.996,-50.0,-55.0,-10.0,-4.699,-0.732,0.366,0.0,0.0,0
1259,28.799,100896.0,-0.005,-0.006,-0.991,-50.0,-55.0,-10.0,-4.577,-0.793,0.305,0.0,0.0,0
1260,28.799,100893.0,-0.004,-0.004,-0.995,-50.0,-55.0,-10.0,-4.455,-0.793,0.366,0.0,0.0,0
1261,28.799,100892.0,-0.009,0.0,-1.0,-50.0,-55.0,-10.0,-4.516,-1.037,0.183,0.0,0.0,0
1262,28.799,100898.0,-0.008,-0.007,-0.994,-50.0,-55.0,-10.0,-4.76,-1.037,0.244,0.0,0.0,0
1263,28.799,100888.0,-0.006,-0.009,-0.991,-50.0,-55.0,-10.0,-4.577,-1.037,0.427,0.0,0.0,0
1264,28.799,100890.0,-0.008,-0.007,-0.994,-50.0,-55.0,-10.0,-4.516,-0.854,0.244,0.0,0.0,0
1265,28.799,100889.0,-0.009,-0.003,-0.991,-50.0,-55.0,-10.0,-4.272,-0.854,0.427,0.0,0.0,0
1266,28.799,100885.0,-0.009,-0.007,-0.994,-50.0,-55.0,-10.0,-4.577,-1.159,0.366,0.0,0.0,0
1267,28.799,100891.0,-0.007,-0.01,-0.991,-50.0,-55.0,-10.0,-4.272,-1.037,0.122,0.0,0.0,0
1268,28.799,100889.0,-0.007,-0.006,-0.997,-50.0,-55.0,-10.0,-4.76,-1.159,0.244,0.0,0.0,0
1269,28.799,100898.0,-0.006,-0.01,-0.996,-50.0,-55.0,-10.0,-4.272,-0.915,0.488,0.0,0.0,0
1270,28.799,100887.0,-0.006,-0.009,-0.993,-50.0,-55.0,-10.0,-4.577,-0.915,0.183,0.0,0.0,0
1271,28.799,100885.0,-0.006,-0.001,-0.994,-50.0,-55.0,-10.0,-4.577,-1.159,0.488,0.0,0.0,0
1272,28.799,100888.0,-0.007,-0.009,-0.996,-50.0,-55.0,-10.0,-4.516,-1.037,0.183,0.0,0.0,0
1273,28.799,100889.0,-0.003,-0.005,-0.999,-50.0,-55.0,-10.0,-4.638,-0.854,0.183,0.0,0.0,0
1274,28.799,100890.0,-0.001,-0.006,-0.997,-50.0,-55.0,-10.0,-4.516,-1.037,0.244,0.0,0.0,0
1275,28.799,100893.0,-0.007,-0.002,-0.998,-50.0,-55.0,-10.0,-4.516,-0.915,0.427,0.0,0.0,0
1276,28.799,100892.0,-0.006,-0.004,-0.997,-50.0,-55.0,-10.0,-4.455,-0.915,0.244,0.0,0.0,0
1277,28.799,100895.0,0.0,-0.007,-0.994,-50.0,-55.0,-10.0,-4.699,-0.915,0.305,0.0,0.0,0
1278,28.799,100895.0,-0.008,-0.003,-0.993,-50.0,-55.0,-10.0,-4.577,-0.854,0.305,0.0,0.0,0
1279,28.799,100894.0,-0.007,-0.003,-0.995,-50.0,-55.0,-10.0,-4.577,-1.037,0.305,0.0,0.0,0
1280,28.799,100898.0,-0.004,-0.005,-1.0,-50.0,-55.0,-10.0,-4.577,-0.854,0.061,0.0,0.0,0
1281,28.799,100898.0,-0.006,-0.004,-0.991,-50.0,-55.0,-10.0,-4.577,-1.098,0.305,0.0,0.0,0
1282,28.799,100894.0,-0.006,-0.006,-0.996,-50.0,-55.0,-10.0,-4.638,-0.915,0.244,0.0,0.0,0
1283,28.799,100893.0,-0.004,0.0,-0.995,-50.0,-55.0,-10.0,-4.577,-0.915,0.427,0.0,0.0,0
1284,28.799,100896.0,-0.008,-0.009,-1.001,-50.0,-55.0,-10.0,-4.699,-1.037,0.427,0.0,0.0,0
1285,28.799,100900.0,-0.006,-0.007,-0.996,-50.0,-55.0,-10.0,-4.516,-0.915,0.244,0.0,0.0,0
1286,28.799,100893.0,-0.007,-0.008,-0.996,-50.0,-55.0,-10.0,-4.455,-0.976,-0.061,0.0,0.0,0
1287,28.799,100895.0,-0.007,-0.004,-0.993,-50.0,-55.0,-10.0,-4.272,-1.098,0.305,0.0,0.0,0
1288,28.799,100895.0,-0.007,-0.005,-0.995,-50.0,-55.0,-10.0,-4.272,-0.915,-0.061,0.0,0.0,0
1289,28.799,100899.0,-0.006,-0.004,-0.998,-50.0,-55.0,-10.0,-4.516,-0.793,0.305,0.0,0.0,0
1290,28.799,100897.0,-0.006,-0.007,-1.0,-50.0,-55.0,-10.0,-4.638,-1.22,0.488,0.0,0.0,0
1291,28.799,100900.0,-0.006,-0.003,-0.993,-50.0,-55.0,-10.0,-4.638,-1.098,0.183,0.0,0.0,0
1292,28.799,100895.0,-0.005,-0.008,-0.999,-50.0,-55.0,-10.0,-4.394,-1.098,0.122,0.0,0.0,0
1293,28.799,100891.0,-0.01,-0.006,-0.994,-50.0,-55.0,-10.0,-4.577,-0.793,0.122,0.0,0.0,0
1294,28.799,100896.0,-0.004,-0.005,-0.995,-50.0,-55.0,-10.0,-4.394,-0.854,0.427,0.0,0.0,0
1295,28.799,100895.0,-0.005,-0.006,-1.0,-50.0,-55.0,-10.0,-4.76,-0.671,0.427,0.0,0.0,0
1296,28.799,100893.0,-0.003,-0.003,-0.99,-50.0,-55.0,-10.0,-4.638,-1.159,0.122,0.0,0.0,0
1297,28.799,100893.0,-0.007,-0.003,-1.003,-50.0,-55.0,-10.0,-4.638,-0.915,0.061,0.0,0.0,0
1298,28.799,100892.0,-0.007,-0.006,-0.998,-50.0,-55.0,-10.0,-4.638,-0.915,0.122,0.0,0.0,0
1299,28.799,100898.0,-0.005,-0.007,-0.999,-50.0,-55.0,-10.0,-4.577,-1.037,0.427,0.0,0.0,0
1300,28.799,100895.0,-0.004,-0.006,-0.997,-50.0,-55.0,-10.0,-4.394,-0.915,0.427,0.0,0.0,0
1301,28.799,100896.0,-0.004,-0.005,-0.989,-50.0,-55.0,-10.0,-4.516,-1.037,0.366,0.0,0.0,0
1302,28.799,100893.0,-0.005,-0.004,-0.998,-50.0,-55.0,-10.0,-4.699,-1.037,0.244,0.0,0.0,0
1303,28.799,100896.0,-0.008,-0.001,-0.997,-50.0,-55.0,-10.0,-4.577,-0.976,0.122,0.0,0.0,0
1304,28.799,100896.0,-0.008,-0.008,-0.992,-50.0,-55.0,-10.0,-4.394,-0.976,0.305,0.0,0.0,0
1305,28.799,100894.0,-0.01,-0.003,-0.996,-50.0,-55.0,-10.0,-4.272,-0.976,0.305,0.0,0.0,0
1306,28.799,100895.0,-0.007,-0.005,-0.993,-50.0,-55.0,-10.0,-4.882,-1.037,0.366,0.0,0.0,0
1307,28.799,100893.0,-0.007,-0.006,-0.999,-50.0,-55.0,-10.0,-4.394,-0.854,0.183,0.0,0.0,0
1308,28.799,100895.0,-0.004,0.001,-0.993,-50.0,-55.0,-10.0,-4.272,-1.22,0.488,0.0,0.0,0
1309,28.799,100891.0,-0.006,-0.008,-0.993,-50.0,-55.0,-10.0,-4.333,-0.793,0.305,0.0,0.0,0
1310,28.799,100891.0,-0.007,-0.003,-0.988,-50.0,-55.0,-10.0,-4.821,-1.037,0.244,0.0,0.0,0
1311,28.799,100892.0,-0.004,-0.009,-0.999,-50.0,-55.0,-10.0,-4.76,-0.793,0.366,0.0,0.0,0
1312,28.799,100885.0,-0.004,-0.002,-0.993,-50.0,-55.0,-10.0,-4.516,-0.976,0.427,0.0,0.0,0
1313,28.799,100887.0,-0.011,-0.006,-0.993,-50.0,-55.0,-10.0,-4.638,-0.915,0.183,0.0,0.0,0
1314,28.799,100891.0,-0.005,-0.004,-0.998,-50.0,-55.0,-10.0,-4.455,-1.037,0.244,0.0,0.0,0
1315,28.799,100893.0,-0.004,-0.004,-0.996,-50.0,-55.0,-10.0,-4.455,-0.976,0.427,0.0,0.0,0
1316,28.799,100894.0,-0.005,-0.005,-0.987,-50.0,-55.0,-10.0,-4.577,-1.037,0.244,0.0,0.0,0
1317,28.799,100893.0,-0.006,-0.002,-0.997,-50.0,-55.0,-10.0,-4.272,-0.915,0.122,0.0,0.0,0
1318,28.799,100898.0,-0.009,-0.004,-0.998,-50.0,-55.0,-10.0,-4.76,-1.037,0.061,0.0,0.0,0
1319,28.799,100892.0,-0.006,-0.003,-0.991,-50.0,-55.0,-10.0,-4.699,-0.854,0.0,0.0,0.0,0
1320,28.799,100894.0,-0.006,-0.008,-0.998,-50.0,-55.0,-10.0,-4.577,-0.976,0.244,0.0,0.0,0
1321,28.799,100893.0,-0.007,-0.007,-0.987,-50.0,-55.0,-10.0,-4.638,-0.915,0.488,0.0,0.0,0
1322,28.799,100897.0,-0.005,-0.005,-0.994,-50.0,-55.0,-10.0,-4.638,-0.976,0.427,0.0,0.0,0
1323,28.799,100888.0,-0.004,-0.005,-1.0,-50.0,-55.0,-10.0,-4.455,-0.793,0.244,0.0,0.0,0
1324,28.799,100891.0,-0.007,-0.007,-0.993,-50.0,-55.0,-10.0,-4.638,-1.098,0.488,0.0,0.0,0
1325,28.799,100896.0,-0.006,0.0,-1.0,-50.0,-55.0,-10.0,-4.272,-0.915,0.183,0.0,0.0,0
1326,28.799,100899.0,-0.006,-0.005,-1.001,-50.0,-55.0,-10.0,-4.394,-1.037,0.122,0.0,0.0,0
1327,28.799,100892.0,-0.008,-0.007,-0.996,-50.0,-55.0,-10.0,-4.516,-0.976,0.366,0.0,0.0,0
1328,28.799,100895.0,-0.005,-0.005,-0.999,-50.0,-55.0,-10.0,-4.272,-1.098,0.183,0.0,0.0,0
1329,28.799,100890.0,-0.006,-0.005,-0.999,-50.0,-55.0,-10.0,-4.516,-0.915,0.305,0.0,0.0,0
1330,28.799,100896.0,-0.007,-0.005,-0.996,-50.0,-55.0,-10.0,-4.699,-0.976,0.305,0.0,0.0,0
1331,28.799,100896.0,-0.007,-0.005,-0.998,-50.0,-55.0,-10.0,-4.394,-0.915,0.183,0.0,0.0,0
1332,28.799,100901.0,-0.005,-0.005,-1.0,-50.0,-55.0,-10.0,-4.333,-0.976,0.427,0.0,0.0,0
1333,28.799,100900.0,-0.009,-0.003,-0.995,-50.0,-55.0,-10.0,-4.638,-0.976,0.305,0.0,0.0,0
1334,28.799,100893.0,-0.005,-0.004,-1.0,-50.0,-55.0,-10.0,-4.699,-1.037,0.366,0.0,0.0,0
1335,28.799,100893.0,-0.006,-0.008,-0.994,-50.0,-55.0,-10.0,-4.577,-1.159,0.244,0.0,0.0,0
1336,28.799,100894.0,-0.009,-0.008,-0.991,-50.0,-55.0,-10.0,-4.516,-1.159,0.183,0.0,0.0,0
1337,28.799,100896.0,-0.009,-0.007,-0.993,-50.0,-55.0,-10.0,-4.516,-1.037,0.122,0.0,0.0,0
1338,28.799,100893.0,-0.007,-0.006,-0.999,-50.0,-55.0,-10.0,-4.333,-1.037,0.427,0.0,0.0,0
1339,28.799,100894.0,-0.011,-0.006,-0.997,-50.0,-55.0,-10.0,-4.394,-0.915,0.427,0.0,0.0,0
1340,28.799,100891.0,-0.006,-0.005,-0.992,-50.0,-55.0,-10.0,-4.455,-0.976,0.549,0.0,0.0,0
1341,28.799,100895.0,-0.005,-0.004,-0.994,-50.0,-55.0,-10.0,-4.76,-1.159,0.366,0.0,0.0,0
1342,28.799,100894.0,-0.009,-0.004,-0.995,-50.0,-55.0,-10.0,-4.577,-1.098,0.183,0.0,0.0,0
1343,28.799,100894.0,-0.008,-0.005,-0.994,-50.0,-55.0,-10.0,-4.699,-0.976,0.183,0.0,0.0,0
1344,28.799,100893.0,-0.007,-0.006,-0.994,-50.0,-55.0,-10.0,-4.577,-0.915,0.61,0.0,0.0,0
1345,28.799,100892.0,-0.006,-0.003,-0.993,-50.0,-55.0,-10.0,-4.699,-1.098,0.366,0.0,0.0,0
1346,28.799,100896.0,-0.01,-0.005,-0.996,-50.0,-55.0,-10.0,-4.638,-1.098,0.0,0.0,0.0,0
1347,28.799,100894.0,-0.011,-0.002,-0.995,-50.0,-55.0,-10.0,-4.577,-0.915,0.0,0.0,0.0,0
1348,28.799,100891.0,-0.002,-0.002,-0.996,-50.0,-55.0,-10.0,-4.638,-0.732,0.122,0.0,0.0,0
1349,28.799,100890.0,-0.004,-0.006,-1.0,-50.0,-55.0,-10.0,-4.821,-0.976,0.122,0.0,0.0,0
1350,28.799,100887.0,-0.01,-0.004,-0.996,-50.0,-55.0,-10.0,-4.882,-0.915,0.366,0.0,0.0,0
1351,28.799,100892.0,-0.006,-0.006,-0.996,-50.0,-55.0,-10.0,-4.516,-1.037,0.061,0.0,0.0,0
1352,28.799,100886.0,-0.008,-0.006,-0.995,-50.0,-55.0,-10.0,-4.333,-0.976,0.122,0.0,0.0,0
1353,28.799,100893.0,-0.004,-0.003,-0.994,-50.0,-55.0,-10.0,-4.821,-0.854,0.305,0.0,0.0,0
1354,28.799,100888.0,-0.007,-0.007,-1.0,-50.0,-55.0,-10.0,-4.516,-0.915,0.244,0.0,0.0,0
1355,28.799,100895.0,-0.004,-0.006,-0.994,-50.0,-55.0,-10.0,-4.577,-0.976,0.122,0.0,0.0,0
1356,28.799,100896.0,-0.005,0.002,-0.995,-50.0,-55.0,-10.0,-4.577,-0.793,0.305,0.0,0.0,0
1357,28.799,100899.0,-0.007,-0.004,-0.999,-50.0,-55.0,-10.0,-4.272,-0.671,0.244,0.0,0.0,0
1358,28.799,100895.0,-0.004,-0.006,-0.995,-50.0,-55.0,-10.0,-4.455,-1.037,0.183,0.0,0.0,0
1359,28.799,100891.0,-0.006,-0.006,-0.999,-50.0,-55.0,-10.0,-4.516,-1.037,0.122,0.0,0.0,0
1360,28.799,100890.0,-0.006,-0.002,-0.996,-50.0,-55.0,-10.0,-4.394,-0.793,0.366,0.0,0.0,0
1361,28.799,100891.0,-0.007,-0.005,-1.002,-50.0,-55.0,-10.0,-4.76,-0.976,0.366,0.0,0.0,0
1362,28.799,100898.0,-0.008,-0.009,-1.001,-50.0,-55.0,-10.0,-4.333,-0.915,0.305,0.0,0.0,0
1363,28.799,100893.0,-0.003,-0.005,-0.997,-50.0,-55.0,-10.0,-4.455,-0.915,0.366,0.0,0.0,0
1364,28.799,100896.0,-0.006,-0.007,-0.995,-50.0,-55.0,-10.0,-4.516,-0.732,0.366,0.0,0.0,0
